time,linear_accel_x,linear_accel_y,linear_accel_z,angular_vel_x,angular_vel_y,angular_vel_z
0.724673,0.002588,0.000000,0.000000,0.000000,0.000000,0.000000
0.734673,0.002588,0.000000,0.000000,0.000000,0.000000,0.000000
0.744673,0.002588,0.000000,0.000000,0.000000,0.000000,0.000000
0.754673,0.002588,0.000000,0.000000,0.000000,0.000000,0.000000
0.764673,0.002588,0.000000,0.000000,0.000000,0.000000,0.000000
0.774673,0.002588,0.000000,0.000000,0.000000,0.000000,0.000000
0.784673,0.002588,0.000000,0.000000,0.000000,0.000000,0.000000
0.794673,0.002588,0.000000,0.000000,0.000000,0.000000,0.000000
0.804673,0.002588,0.000000,0.000000,0.000000,0.000000,0.000000
0.814673,0.002588,0.000000,0.000000,0.000000,0.000000,0.000000
0.824673,0.002588,0.000000,0.000000,0.000000,0.000000,0.000000
0.834673,0.002588,0.000000,0.000000,0.000000,0.000000,0.000000
0.844673,0.002588,0.000000,0.000000,0.000000,0.000000,0.000000
0.854673,0.002588,0.000000,0.000000,0.000000,0.000000,0.000000
0.864673,0.009593,0.000000,0.000000,0.000000,0.000000,0.000000
0.874673,0.009593,0.000000,0.000000,0.000000,0.000000,0.000000
0.884673,0.009593,0.000000,0.000000,0.000000,0.000000,0.000000
0.894673,0.009593,0.000000,0.000000,0.000000,0.000000,0.000000
0.904673,0.009593,0.000000,0.000000,0.000000,0.000000,0.000000
0.914673,0.009593,0.000000,0.000000,0.000000,0.000000,0.000000
0.924673,0.009593,0.000000,0.000000,0.000000,0.000000,0.000000
0.934673,0.009593,0.000000,0.000000,0.000000,0.000000,0.000000
0.944673,0.009593,0.000000,0.000000,0.000000,0.000000,0.000000
0.954673,0.009593,0.000000,0.000000,0.000000,0.000000,0.000000
0.964673,0.009593,0.000000,0.000000,0.000000,0.000000,0.000000
0.974673,0.009593,0.000000,0.000000,0.000000,0.000000,0.000000
0.984673,0.009593,0.000000,0.000000,0.000000,0.000000,0.000000
0.994673,0.009593,0.000000,0.000000,0.000000,0.000000,0.000000
1.004673,0.016993,0.000000,0.000000,0.000000,0.000000,0.000000
1.014673,0.016993,0.000000,0.000000,0.000000,0.000000,0.000000
1.024673,0.016993,0.000000,0.000000,0.000000,0.000000,0.000000
1.034673,0.016993,0.000000,0.000000,0.000000,0.000000,0.000000
1.044673,0.016993,0.000000,0.000000,0.000000,0.000000,0.000000
1.054673,0.016993,0.000000,0.000000,0.000000,0.000000,0.000000
1.064673,0.016993,0.000000,0.000000,0.000000,0.000000,0.000000
1.074673,0.016993,0.000000,0.000000,0.000000,0.000000,0.000000
1.084673,0.016993,0.000000,0.000000,0.000000,0.000000,0.000000
1.094673,0.016993,0.000000,0.000000,0.000000,0.000000,0.000000
1.104673,0.016993,0.000000,0.000000,0.000000,0.000000,0.000000
1.114673,0.016993,0.000000,0.000000,0.000000,0.000000,0.000000
1.124673,0.016993,0.000000,0.000000,0.000000,0.000000,0.000000
1.134673,0.024315,0.000000,0.000000,0.000000,0.000000,0.000000
1.144673,0.024315,0.000000,0.000000,0.000000,0.000000,0.000000
1.154673,0.024315,0.000000,0.000000,0.000000,0.000000,0.000000
1.164673,0.024315,0.000000,0.000000,0.000000,0.000000,0.000000
1.174673,0.024315,0.000000,0.000000,0.000000,0.000000,0.000000
1.184673,0.024315,0.000000,0.000000,0.000000,0.000000,0.000000
1.194673,0.024315,0.000000,0.000000,0.000000,0.000000,0.000000
1.204673,0.024315,0.000000,0.000000,0.000000,0.000000,0.000000
1.214673,0.024315,0.000000,0.000000,0.000000,0.000000,0.000000
1.224673,0.024315,0.000000,0.000000,0.000000,0.000000,0.000000
1.234673,0.024315,0.000000,0.000000,0.000000,0.000000,0.000000
1.244673,0.024315,0.000000,0.000000,0.000000,0.000000,0.000000
1.254673,0.035730,0.000000,0.000000,0.000000,0.000000,0.000000
1.264673,0.035730,0.000000,0.000000,0.000000,0.000000,0.000000
1.274673,0.035730,0.000000,0.000000,0.000000,0.000000,0.000000
1.284673,0.035730,0.000000,0.000000,0.000000,0.000000,0.000000
1.294673,0.035730,0.000000,0.000000,0.000000,0.000000,0.000000
1.304673,0.035730,0.000000,0.000000,0.000000,0.000000,0.000000
1.314673,0.035730,0.000000,0.000000,0.000000,0.000000,0.000000
1.324673,0.035730,0.000000,0.000000,0.000000,0.000000,0.000000
1.334673,0.035730,0.000000,0.000000,0.000000,0.000000,0.000000
1.344673,0.035730,0.000000,0.000000,0.000000,0.000000,0.000000
1.354673,0.035730,0.000000,0.000000,0.000000,0.000000,0.000000
1.364673,0.035730,0.000000,0.000000,0.000000,0.000000,0.000000
1.374673,0.035730,0.000000,0.000000,0.000000,0.000000,0.000000
1.384673,0.035730,0.000000,0.000000,0.000000,0.000000,0.000000
1.394673,0.035730,0.000000,0.000000,0.000000,0.000000,0.000000
1.404673,0.035730,0.000000,0.000000,0.000000,0.000000,0.000000
1.414673,0.035730,0.000000,0.000000,0.000000,0.000000,0.000000
1.424673,0.035730,0.000000,0.000000,0.000000,0.000000,0.000000
1.434673,0.044660,0.000000,0.000000,0.000000,0.000000,0.000000
1.444673,0.044660,0.000000,0.000000,0.000000,0.000000,0.000000
1.454673,0.044660,0.000000,0.000000,0.000000,0.000000,0.000000
1.464673,0.044660,0.000000,0.000000,0.000000,0.000000,0.000000
1.474673,0.044660,0.000000,0.000000,0.000000,0.000000,0.000000
1.484673,0.044660,0.000000,0.000000,0.000000,0.000000,0.000000
1.494673,0.044660,0.000000,0.000000,0.000000,0.000000,0.000000
1.504673,0.044660,0.000000,0.000000,0.000000,0.000000,0.000000
1.514673,0.044660,0.000000,0.000000,0.000000,0.000000,0.000000
1.524673,0.044660,0.000000,0.000000,0.000000,0.000000,0.000000
1.534673,0.044660,0.000000,0.000000,0.000000,0.000000,0.000000
1.544673,0.044660,0.000000,0.000000,0.000000,0.000000,0.000000
1.554673,0.044660,0.000000,0.000000,0.000000,0.000000,0.000000
1.564673,0.044660,0.000000,0.000000,0.000000,0.000000,0.000000
1.574673,0.053416,0.000000,0.000000,0.000000,0.000000,0.000000
1.584673,0.053416,0.000000,0.000000,0.000000,0.000000,0.000000
1.594673,0.053416,0.000000,0.000000,0.000000,0.000000,0.000000
1.604673,0.053416,0.000000,0.000000,0.000000,0.000000,0.000000
1.614673,0.053416,0.000000,0.000000,0.000000,0.000000,0.000000
1.624673,0.053416,0.000000,0.000000,0.000000,0.000000,0.000000
1.634673,0.053416,0.000000,0.000000,0.000000,0.000000,0.000000
1.644673,0.053416,0.000000,0.000000,0.000000,0.000000,0.000000
1.654673,0.053416,0.000000,0.000000,0.000000,0.000000,0.000000
1.664673,0.053416,0.000000,0.000000,0.000000,0.000000,0.000000
1.674673,0.053416,0.000000,0.000000,0.000000,0.000000,0.000000
1.684673,0.053416,0.000000,0.000000,0.000000,0.000000,0.000000
1.694673,0.053416,0.000000,0.000000,0.000000,0.000000,0.000000
1.704673,0.053416,0.000000,0.000000,0.000000,0.000000,0.000000
1.714673,0.063613,0.000000,0.000000,0.000000,0.000000,0.000000
1.724673,0.063613,0.000000,0.000000,0.000000,0.000000,0.000000
1.734673,0.063613,0.000000,0.000000,0.000000,0.000000,0.000000
1.744673,0.063613,0.000000,0.000000,0.000000,0.000000,0.000000
1.754673,0.063613,0.000000,0.000000,0.000000,0.000000,0.000000
1.764673,0.063613,0.000000,0.000000,0.000000,0.000000,0.000000
1.774673,0.063613,0.000000,0.000000,0.000000,0.000000,0.000000
1.784673,0.063613,0.000000,0.000000,0.000000,0.000000,0.000000
1.794673,0.063613,0.000000,0.000000,0.000000,0.000000,0.000000
1.804673,0.063613,0.000000,0.000000,0.000000,0.000000,0.000000
1.814673,0.063613,0.000000,0.000000,0.000000,0.000000,0.000000
1.824673,0.063613,0.000000,0.000000,0.000000,0.000000,0.000000
1.834673,0.063613,0.000000,0.000000,0.000000,0.000000,0.000000
1.844673,0.063613,0.000000,0.000000,0.000000,0.000000,0.000000
1.854673,0.063613,0.000000,0.000000,0.000000,0.000000,0.000000
1.864673,0.063613,0.000000,0.000000,0.000000,0.000000,0.000000
1.874673,0.063613,0.000000,0.000000,0.000000,0.000000,0.000000
1.884673,0.072086,0.000000,0.000000,0.000000,0.000000,0.000000
1.894673,0.072086,0.000000,0.000000,0.000000,0.000000,0.000000
1.904673,0.072086,0.000000,0.000000,0.000000,0.000000,0.000000
1.914673,0.072086,0.000000,0.000000,0.000000,0.000000,0.000000
1.924673,0.072086,0.000000,0.000000,0.000000,0.000000,0.000000
1.934673,0.072086,0.000000,0.000000,0.000000,0.000000,0.000000
1.944673,0.072086,0.000000,0.000000,0.000000,0.000000,0.000000
1.954673,0.072086,0.000000,0.000000,0.000000,0.000000,0.000000
1.964673,0.072086,0.000000,0.000000,0.000000,0.000000,0.000000
1.974673,0.072086,0.000000,0.000000,0.000000,0.000000,0.000000
1.984673,0.072086,0.000000,0.000000,0.000000,0.000000,0.000000
1.994673,0.072086,0.000000,0.000000,0.000000,0.000000,0.000000
2.004673,0.072086,0.000000,0.000000,0.000000,0.000000,0.000000
2.014673,0.072086,0.000000,0.000000,0.000000,0.000000,0.000000
2.024673,0.072086,0.000000,0.000000,0.000000,0.000000,0.000000
2.034673,0.080000,0.000000,0.000000,0.000000,0.000000,0.000000
2.044673,0.080000,0.000000,0.000000,0.000000,0.000000,0.000000
2.054673,0.080000,0.000000,0.000000,0.000000,0.000000,0.000000
2.064673,0.080000,0.000000,0.000000,0.000000,0.000000,0.000000
2.074673,0.080000,0.000000,0.000000,0.000000,0.000000,0.000000
2.084673,0.080000,0.000000,0.000000,0.000000,0.000000,0.000000
2.094673,0.080000,0.000000,0.000000,0.000000,0.000000,0.000000
2.104673,0.080000,0.000000,0.000000,0.000000,0.000000,0.000000
2.114673,0.080000,0.000000,0.000000,0.000000,0.000000,0.000000
2.124673,0.080000,0.000000,0.000000,0.000000,0.000000,0.000000
2.134673,0.080000,0.000000,0.000000,0.000000,0.000000,0.000000
2.144673,0.080000,0.000000,0.000000,0.000000,0.000000,0.000000
2.154673,0.080000,0.000000,0.000000,0.000000,0.000000,0.000000
2.164673,0.080000,0.000000,0.000000,0.000000,0.000000,0.000000
2.174673,0.080000,0.000000,0.000000,0.000000,0.000000,0.000000
2.184673,0.085915,0.000000,0.000000,0.000000,0.000000,0.000000
2.194673,0.085915,0.000000,0.000000,0.000000,0.000000,0.000000
2.204673,0.085915,0.000000,0.000000,0.000000,0.000000,0.000000
2.214673,0.085915,0.000000,0.000000,0.000000,0.000000,0.000000
2.224673,0.085915,0.000000,0.000000,0.000000,0.000000,0.000000
2.234673,0.085915,0.000000,0.000000,0.000000,0.000000,0.000000
2.244673,0.085915,0.000000,0.000000,0.000000,0.000000,0.000000
2.254673,0.085915,0.000000,0.000000,0.000000,0.000000,0.000000
2.264673,0.085915,0.000000,0.000000,0.000000,0.000000,0.000000
2.274673,0.085915,0.000000,0.000000,0.000000,0.000000,0.000000
2.284673,0.085915,0.000000,0.000000,0.000000,0.000000,0.000000
2.294673,0.085915,0.000000,0.000000,0.000000,0.000000,0.000000
2.304673,0.091912,0.000000,0.000000,0.000000,0.000000,0.000000
2.314673,0.091912,0.000000,0.000000,0.000000,0.000000,0.000000
2.324673,0.091912,0.000000,0.000000,0.000000,0.000000,0.000000
2.334673,0.091912,0.000000,0.000000,0.000000,0.000000,0.000000
2.344673,0.091912,0.000000,0.000000,0.000000,0.000000,0.000000
2.354673,0.091912,0.000000,0.000000,0.000000,0.000000,0.000000
2.364673,0.091912,0.000000,0.000000,0.000000,0.000000,0.000000
2.374673,0.091912,0.000000,0.000000,0.000000,0.000000,0.000000
2.384673,0.091912,0.000000,0.000000,0.000000,0.000000,0.000000
2.394673,0.091912,0.000000,0.000000,0.000000,0.000000,0.000000
2.404673,0.091912,0.000000,0.000000,0.000000,0.000000,0.000000
2.414673,0.091912,0.000000,0.000000,0.000000,0.000000,0.000000
2.424673,0.091912,0.000000,0.000000,0.000000,0.000000,0.000000
2.434673,0.099151,0.000000,0.000000,0.000000,0.000000,0.000000
2.444673,0.099151,0.000000,0.000000,0.000000,0.000000,0.000000
2.454673,0.099151,0.000000,0.000000,0.000000,0.000000,0.000000
2.464673,0.099151,0.000000,0.000000,0.000000,0.000000,0.000000
2.474673,0.099151,0.000000,0.000000,0.000000,0.000000,0.000000
2.484673,0.099151,0.000000,0.000000,0.000000,0.000000,0.000000
2.494673,0.099151,0.000000,0.000000,0.000000,0.000000,0.000000
2.504673,0.099151,0.000000,0.000000,0.000000,0.000000,0.000000
2.514673,0.099151,0.000000,0.000000,0.000000,0.000000,0.000000
2.524673,0.099151,0.000000,0.000000,0.000000,0.000000,0.000000
2.534673,0.099151,0.000000,0.000000,0.000000,0.000000,0.000000
2.544673,0.099151,0.000000,0.000000,0.000000,0.000000,0.000000
2.554673,0.099151,0.000000,0.000000,0.000000,0.000000,0.000000
2.564673,0.099151,0.000000,0.000000,0.000000,0.000000,0.000000
2.574673,0.099151,0.000000,0.000000,0.000000,0.000000,0.000000
2.584673,0.099151,0.000000,0.000000,0.000000,0.000000,0.000000
2.594673,0.105414,0.000000,0.000000,0.000000,0.000000,0.000000
2.604673,0.105414,0.000000,0.000000,0.000000,0.000000,0.000000
2.614673,0.105414,0.000000,0.000000,0.000000,0.000000,0.000000
2.624673,0.105414,0.000000,0.000000,0.000000,0.000000,0.000000
2.634673,0.105414,0.000000,0.000000,0.000000,0.000000,0.000000
2.644673,0.105414,0.000000,0.000000,0.000000,0.000000,0.000000
2.654673,0.105414,0.000000,0.000000,0.000000,0.000000,0.000000
2.664673,0.105414,0.000000,0.000000,0.000000,0.000000,0.000000
2.674673,0.105414,0.000000,0.000000,0.000000,0.000000,0.000000
2.684673,0.105414,0.000000,0.000000,0.000000,0.000000,0.000000
2.694673,0.105414,0.000000,0.000000,0.000000,0.000000,0.000000
2.704673,0.105414,0.000000,0.000000,0.000000,0.000000,0.000000
2.714673,0.105414,0.000000,0.000000,0.000000,0.000000,0.000000
2.724673,0.105414,0.000000,0.000000,0.000000,0.000000,0.000000
2.734673,0.105414,0.000000,0.000000,0.000000,0.000000,0.000000
2.744673,0.105414,0.000000,0.000000,0.000000,0.000000,0.000000
2.754673,0.105414,0.000000,0.000000,0.000000,0.000000,0.000000
2.764673,0.109456,0.000000,0.000000,0.000000,0.000000,0.000000
2.774673,0.109456,0.000000,0.000000,0.000000,0.000000,0.000000
2.784673,0.109456,0.000000,0.000000,0.000000,0.000000,0.000000
2.794673,0.109456,0.000000,0.000000,0.000000,0.000000,0.000000
2.804673,0.109456,0.000000,0.000000,0.000000,0.000000,0.000000
2.814673,0.109456,0.000000,0.000000,0.000000,0.000000,0.000000
2.824673,0.109456,0.000000,0.000000,0.000000,0.000000,0.000000
2.834673,0.109456,0.000000,0.000000,0.000000,0.000000,0.000000
2.844673,0.109456,0.000000,0.000000,0.000000,0.000000,0.000000
2.854673,0.109456,0.000000,0.000000,0.000000,0.000000,0.000000
2.864673,0.109456,0.000000,0.000000,0.000000,0.000000,0.000000
2.874673,0.115029,0.000000,0.000000,0.000000,0.000000,0.000000
2.884673,0.115029,0.000000,0.000000,0.000000,0.000000,0.000000
2.894673,0.115029,0.000000,0.000000,0.000000,0.000000,0.000000
2.904673,0.115029,0.000000,0.000000,0.000000,0.000000,0.000000
2.914673,0.115029,0.000000,0.000000,0.000000,0.000000,0.000000
2.924673,0.115029,0.000000,0.000000,0.000000,0.000000,0.000000
2.934673,0.115029,0.000000,0.000000,0.000000,0.000000,0.000000
2.944673,0.115029,0.000000,0.000000,0.000000,0.000000,0.000000
2.954673,0.115029,0.000000,0.000000,0.000000,0.000000,0.000000
2.964673,0.115029,0.000000,0.000000,0.000000,0.000000,0.000000
2.974673,0.115029,0.000000,0.000000,0.000000,0.000000,0.000000
2.984673,0.115029,0.000000,0.000000,0.000000,0.000000,0.000000
2.994673,0.115029,0.000000,0.000000,0.000000,0.000000,0.000000
3.004673,0.115029,0.000000,0.000000,0.000000,0.000000,0.000000
3.014673,0.115029,0.000000,0.000000,0.000000,0.000000,0.000000
3.024673,0.115029,0.000000,0.000000,0.000000,0.000000,0.000000
3.034673,0.120000,0.000000,0.000000,0.000000,0.000000,0.000000
3.044673,0.120000,0.000000,0.000000,0.000000,0.000000,0.000000
3.054673,0.120000,0.000000,0.000000,0.000000,0.000000,0.000000
3.064673,0.120000,0.000000,0.000000,0.000000,0.000000,0.000000
3.074673,0.120000,0.000000,0.000000,0.000000,0.000000,0.000000
3.084673,0.120000,0.000000,0.000000,0.000000,0.000000,0.000000
3.094673,0.120000,0.000000,0.000000,0.000000,0.000000,0.000000
3.104673,0.120000,0.000000,0.000000,0.000000,0.000000,0.000000
3.114673,0.120000,0.000000,0.000000,0.000000,0.000000,0.000000
3.124673,0.120000,0.000000,0.000000,0.000000,0.000000,0.000000
3.134673,0.120000,0.000000,0.000000,0.000000,0.000000,0.000000
3.144673,0.120000,0.000000,0.000000,0.000000,0.000000,0.000000
3.154673,0.120000,0.000000,0.000000,0.000000,0.000000,0.000000
3.164673,0.120000,0.000000,0.000000,0.000000,0.000000,0.000000
3.174673,0.120000,0.000000,0.000000,0.000000,0.000000,0.000000
3.184673,0.124485,0.000000,0.000000,0.000000,0.000000,0.000000
3.194673,0.124485,0.000000,0.000000,0.000000,0.000000,0.000000
3.204673,0.124485,0.000000,0.000000,0.000000,0.000000,0.000000
3.214673,0.124485,0.000000,0.000000,0.000000,0.000000,0.000000
3.224673,0.124485,0.000000,0.000000,0.000000,0.000000,0.000000
3.234673,0.124485,0.000000,0.000000,0.000000,0.000000,0.000000
3.244673,0.124485,0.000000,0.000000,0.000000,0.000000,0.000000
3.254673,0.124485,0.000000,0.000000,0.000000,0.000000,0.000000
3.264673,0.124485,0.000000,0.000000,0.000000,0.000000,0.000000
3.274673,0.124485,0.000000,0.000000,0.000000,0.000000,0.000000
3.284673,0.124485,0.000000,0.000000,0.000000,0.000000,0.000000
3.294673,0.124485,0.000000,0.000000,0.000000,0.000000,0.000000
3.304673,0.124485,0.000000,0.000000,0.000000,0.000000,0.000000
3.314673,0.124485,0.000000,0.000000,0.000000,0.000000,0.000000
3.324673,0.128870,0.000000,0.000000,0.000000,0.000000,0.000000
3.334673,0.128870,0.000000,0.000000,0.000000,0.000000,0.000000
3.344673,0.128870,0.000000,0.000000,0.000000,0.000000,0.000000
3.354673,0.128870,0.000000,0.000000,0.000000,0.000000,0.000000
3.364673,0.128870,0.000000,0.000000,0.000000,0.000000,0.000000
3.374673,0.128870,0.000000,0.000000,0.000000,0.000000,0.000000
3.384673,0.128870,0.000000,0.000000,0.000000,0.000000,0.000000
3.394673,0.128870,0.000000,0.000000,0.000000,0.000000,0.000000
3.404673,0.128870,0.000000,0.000000,0.000000,0.000000,0.000000
3.414673,0.128870,0.000000,0.000000,0.000000,0.000000,0.000000
3.424673,0.128870,0.000000,0.000000,0.000000,0.000000,0.000000
3.434673,0.128870,0.000000,0.000000,0.000000,0.000000,0.000000
3.444673,0.128870,0.000000,0.000000,0.000000,0.000000,0.000000
3.454673,0.128870,0.000000,0.000000,0.000000,0.000000,0.000000
3.464673,0.133186,0.000000,0.000000,0.000000,0.000000,0.000000
3.474673,0.133186,0.000000,0.000000,0.000000,0.000000,0.000000
3.484673,0.133186,0.000000,0.000000,0.000000,0.000000,0.000000
3.494673,0.133186,0.000000,0.000000,0.000000,0.000000,0.000000
3.504673,0.133186,0.000000,0.000000,0.000000,0.000000,0.000000
3.514673,0.133186,0.000000,0.000000,0.000000,0.000000,0.000000
3.524673,0.133186,0.000000,0.000000,0.000000,0.000000,0.000000
3.534673,0.133186,0.000000,0.000000,0.000000,0.000000,0.000000
3.544673,0.133186,0.000000,0.000000,0.000000,0.000000,0.000000
3.554673,0.133186,0.000000,0.000000,0.000000,0.000000,0.000000
3.564673,0.133186,0.000000,0.000000,0.000000,0.000000,0.000000
3.574673,0.133186,0.000000,0.000000,0.000000,0.000000,0.000000
3.584673,0.133186,0.000000,0.000000,0.000000,0.000000,0.000000
3.594673,0.133186,0.000000,0.000000,0.000000,0.000000,0.000000
3.604673,0.138643,0.000000,0.000000,0.000000,0.000000,0.000000
3.614673,0.138643,0.000000,0.000000,0.000000,0.000000,0.000000
3.624673,0.138643,0.000000,0.000000,0.000000,0.000000,0.000000
3.634673,0.138643,0.000000,0.000000,0.000000,0.000000,0.000000
3.644673,0.138643,0.000000,0.000000,0.000000,0.000000,0.000000
3.654673,0.138643,0.000000,0.000000,0.000000,0.000000,0.000000
3.664673,0.138643,0.000000,0.000000,0.000000,0.000000,0.000000
3.674673,0.138643,0.000000,0.000000,0.000000,0.000000,0.000000
3.684673,0.138643,0.000000,0.000000,0.000000,0.000000,0.000000
3.694673,0.138643,0.000000,0.000000,0.000000,0.000000,0.000000
3.704673,0.138643,0.000000,0.000000,0.000000,0.000000,0.000000
3.714673,0.138643,0.000000,0.000000,0.000000,0.000000,0.000000
3.724673,0.138643,0.000000,0.000000,0.000000,0.000000,0.000000
3.734673,0.138643,0.000000,0.000000,0.000000,0.000000,0.000000
3.744673,0.138643,0.000000,0.000000,0.000000,0.000000,0.000000
3.754673,0.138643,0.000000,0.000000,0.000000,0.000000,0.000000
3.764673,0.138643,0.000000,0.000000,0.000000,0.000000,0.000000
3.774673,0.138643,0.000000,0.000000,0.000000,0.000000,0.000000
3.784673,0.143947,0.000000,0.000000,0.000000,0.000000,0.000000
3.794673,0.143947,0.000000,0.000000,0.000000,0.000000,0.000000
3.804673,0.143947,0.000000,0.000000,0.000000,0.000000,0.000000
3.814673,0.143947,0.000000,0.000000,0.000000,0.000000,0.000000
3.824673,0.143947,0.000000,0.000000,0.000000,0.000000,0.000000
3.834673,0.143947,0.000000,0.000000,0.000000,0.000000,0.000000
3.844673,0.143947,0.000000,0.000000,0.000000,0.000000,0.000000
3.854673,0.143947,0.000000,0.000000,0.000000,0.000000,0.000000
3.864673,0.143947,0.000000,0.000000,0.000000,0.000000,0.000000
3.874673,0.143947,0.000000,0.000000,0.000000,0.000000,0.000000
3.884673,0.143947,0.000000,0.000000,0.000000,0.000000,0.000000
3.894673,0.143947,0.000000,0.000000,0.000000,0.000000,0.000000
3.904673,0.143947,0.000000,0.000000,0.000000,0.000000,0.000000
3.914673,0.143947,0.000000,0.000000,0.000000,0.000000,0.000000
3.924673,0.143947,0.000000,0.000000,0.000000,0.000000,0.000000
3.934673,0.143947,0.000000,0.000000,0.000000,0.000000,0.000000
3.944673,0.143947,0.000000,0.000000,0.000000,0.000000,0.000000
3.954673,0.143947,0.000000,0.000000,0.000000,0.000000,0.000000
3.964673,0.147604,0.000000,0.000000,0.000000,0.000000,0.000000
3.974673,0.147604,0.000000,0.000000,0.000000,0.000000,0.000000
3.984673,0.147604,0.000000,0.000000,0.000000,0.000000,0.000000
3.994673,0.147604,0.000000,0.000000,0.000000,0.000000,0.000000
4.004673,0.147604,0.000000,0.000000,0.000000,0.000000,0.000000
4.014673,0.147604,0.000000,0.000000,0.000000,0.000000,0.000000
4.024673,0.147604,0.000000,0.000000,0.000000,0.000000,0.000000
4.034673,0.147604,0.000000,0.000000,0.000000,0.000000,0.000000
4.044673,0.147604,0.000000,0.000000,0.000000,0.000000,0.000000
4.054673,0.147604,0.000000,0.000000,0.000000,0.000000,0.000000
4.064673,0.147604,0.000000,0.000000,0.000000,0.000000,0.000000
4.074673,0.147604,0.000000,0.000000,0.000000,0.000000,0.000000
4.084673,0.147604,0.000000,0.000000,0.000000,0.000000,0.000000
4.094673,0.150766,0.000000,0.000000,0.000000,0.000000,0.000000
4.104673,0.150766,0.000000,0.000000,0.000000,0.000000,0.000000
4.114673,0.150766,0.000000,0.000000,0.000000,0.000000,0.000000
4.124673,0.150766,0.000000,0.000000,0.000000,0.000000,0.000000
4.134673,0.150766,0.000000,0.000000,0.000000,0.000000,0.000000
4.144673,0.150766,0.000000,0.000000,0.000000,0.000000,0.000000
4.154673,0.150766,0.000000,0.000000,0.000000,0.000000,0.000000
4.164673,0.150766,0.000000,0.000000,0.000000,0.000000,0.000000
4.174673,0.150766,0.000000,0.000000,0.000000,0.000000,0.000000
4.184673,0.150766,0.000000,0.000000,0.000000,0.000000,0.000000
4.194673,0.150766,0.000000,0.000000,0.000000,0.000000,0.000000
4.204673,0.150766,0.000000,0.000000,0.000000,0.000000,0.000000
4.214673,0.154061,0.000000,0.000000,0.000000,0.000000,0.000000
4.224673,0.154061,0.000000,0.000000,0.000000,0.000000,0.000000
4.234673,0.154061,0.000000,0.000000,0.000000,0.000000,0.000000
4.244673,0.154061,0.000000,0.000000,0.000000,0.000000,0.000000
4.254673,0.154061,0.000000,0.000000,0.000000,0.000000,0.000000
4.264673,0.154061,0.000000,0.000000,0.000000,0.000000,0.000000
4.274673,0.154061,0.000000,0.000000,0.000000,0.000000,0.000000
4.284673,0.154061,0.000000,0.000000,0.000000,0.000000,0.000000
4.294673,0.154061,0.000000,0.000000,0.000000,0.000000,0.000000
4.304673,0.154061,0.000000,0.000000,0.000000,0.000000,0.000000
4.314673,0.154061,0.000000,0.000000,0.000000,0.000000,0.000000
4.324673,0.154061,0.000000,0.000000,0.000000,0.000000,0.000000
4.334673,0.154061,0.000000,0.000000,0.000000,0.000000,0.000000
4.344673,0.154061,0.000000,0.000000,0.000000,0.000000,0.000000
4.354673,0.156737,0.000000,0.000000,0.000000,0.000000,0.000000
4.364673,0.156737,0.000000,0.000000,0.000000,0.000000,0.000000
4.374673,0.156737,0.000000,0.000000,0.000000,0.000000,0.000000
4.384673,0.156737,0.000000,0.000000,0.000000,0.000000,0.000000
4.394673,0.156737,0.000000,0.000000,0.000000,0.000000,0.000000
4.404673,0.156737,0.000000,0.000000,0.000000,0.000000,0.000000
4.414673,0.156737,0.000000,0.000000,0.000000,0.000000,0.000000
4.424673,0.156737,0.000000,0.000000,0.000000,0.000000,0.000000
4.434673,0.156737,0.000000,0.000000,0.000000,0.000000,0.000000
4.444673,0.156737,0.000000,0.000000,0.000000,0.000000,0.000000
4.454673,0.156737,0.000000,0.000000,0.000000,0.000000,0.000000
4.464673,0.156737,0.000000,0.000000,0.000000,0.000000,0.000000
4.474673,0.156737,0.000000,0.000000,0.000000,0.000000,0.000000
4.484673,0.156737,0.000000,0.000000,0.000000,0.000000,0.000000
4.494673,0.158845,0.000000,0.000000,0.000000,0.000000,0.000000
4.504673,0.158845,0.000000,0.000000,0.000000,0.000000,0.000000
4.514673,0.158845,0.000000,0.000000,0.000000,0.000000,0.000000
4.524673,0.158845,0.000000,0.000000,0.000000,0.000000,0.000000
4.534673,0.158845,0.000000,0.000000,0.000000,0.000000,0.000000
4.544673,0.158845,0.000000,0.000000,0.000000,0.000000,0.000000
4.554673,0.158845,0.000000,0.000000,0.000000,0.000000,0.000000
4.564673,0.158845,0.000000,0.000000,0.000000,0.000000,0.000000
4.574673,0.158845,0.000000,0.000000,0.000000,0.000000,0.000000
4.584673,0.158845,0.000000,0.000000,0.000000,0.000000,0.000000
4.594673,0.158845,0.000000,0.000000,0.000000,0.000000,0.000000
4.604673,0.158845,0.000000,0.000000,0.000000,0.000000,0.000000
4.614673,0.158845,0.000000,0.000000,0.000000,0.000000,0.000000
4.624673,0.158845,0.000000,0.000000,0.000000,0.000000,0.000000
4.634673,0.158845,0.000000,0.000000,0.000000,0.000000,0.000000
4.644673,0.158845,0.000000,0.000000,0.000000,0.000000,0.000000
4.654673,0.158845,0.000000,0.000000,0.000000,0.000000,0.000000
4.664673,0.158845,0.000000,0.000000,0.000000,0.000000,0.000000
4.674673,0.159035,0.000000,0.000000,0.000000,0.000000,0.000000
4.684673,0.159035,0.000000,0.000000,0.000000,0.000000,0.000000
4.694673,0.159035,0.000000,0.000000,0.000000,0.000000,0.000000
4.704673,0.159035,0.000000,0.000000,0.000000,0.000000,0.000000
4.714673,0.159035,0.000000,0.000000,0.000000,0.000000,0.000000
4.724673,0.159035,0.000000,0.000000,0.000000,0.000000,0.000000
4.734673,0.159035,0.000000,0.000000,0.000000,0.000000,0.000000
4.744673,0.159035,0.000000,0.000000,0.000000,0.000000,0.000000
4.754673,0.159035,0.000000,0.000000,0.000000,0.000000,0.000000
4.764673,0.159035,0.000000,0.000000,0.000000,0.000000,0.000000
4.774673,0.159035,0.000000,0.000000,0.000000,0.000000,0.000000
4.784673,0.159035,0.000000,0.000000,0.000000,0.000000,0.000000
4.794673,0.159035,0.000000,0.000000,0.000000,0.000000,0.000000
4.804673,0.159035,0.000000,0.000000,0.000000,0.000000,0.000000
4.814673,0.157854,0.000000,0.000000,0.000000,0.000000,0.000000
4.824673,0.157854,0.000000,0.000000,0.000000,0.000000,0.000000
4.834673,0.157854,0.000000,0.000000,0.000000,0.000000,0.000000
4.844673,0.157854,0.000000,0.000000,0.000000,0.000000,0.000000
4.854673,0.157854,0.000000,0.000000,0.000000,0.000000,0.000000
4.864673,0.157854,0.000000,0.000000,0.000000,0.000000,0.000000
4.874673,0.157854,0.000000,0.000000,0.000000,0.000000,0.000000
4.884673,0.157854,0.000000,0.000000,0.000000,0.000000,0.000000
4.894673,0.157854,0.000000,0.000000,0.000000,0.000000,0.000000
4.904673,0.157854,0.000000,0.000000,0.000000,0.000000,0.000000
4.914673,0.157854,0.000000,0.000000,0.000000,0.000000,0.000000
4.924673,0.157854,0.000000,0.000000,0.000000,0.000000,0.000000
4.934673,0.153439,0.000000,0.000000,0.000000,0.000000,0.000000
4.944673,0.153439,0.000000,0.000000,0.000000,0.000000,0.000000
4.954673,0.153439,0.000000,0.000000,0.000000,0.000000,0.000000
4.964673,0.153439,0.000000,0.000000,0.000000,0.000000,0.000000
4.974673,0.153439,0.000000,0.000000,0.000000,0.000000,0.000000
4.984673,0.153439,0.000000,0.000000,0.000000,0.000000,0.000000
4.994673,0.153439,0.000000,0.000000,0.000000,0.000000,0.000000
5.004673,0.153439,0.000000,0.000000,0.000000,0.000000,0.000000
5.014673,0.153439,0.000000,0.000000,0.000000,0.000000,0.000000
5.024673,0.153439,0.000000,0.000000,0.000000,0.000000,0.000000
5.034673,0.153439,0.000000,0.000000,0.000000,0.000000,0.000000
5.044673,0.153439,0.000000,0.000000,0.000000,0.000000,0.000000
5.054673,0.153439,0.000000,0.000000,0.000000,0.000000,0.000000
5.064673,0.153439,0.000000,0.000000,0.000000,0.000000,0.000000
5.074673,0.153439,0.000000,0.000000,0.000000,0.000000,0.000000
5.084673,0.153439,0.000000,0.000000,0.000000,0.000000,0.000000
5.094673,0.153439,0.000000,0.000000,0.000000,0.000000,0.000000
5.104673,0.150000,0.000000,0.000000,0.000000,0.000000,0.000000
5.114673,0.150000,0.000000,0.000000,0.000000,0.000000,0.000000
5.124673,0.150000,0.000000,0.000000,0.000000,0.000000,0.000000
5.134673,0.150000,0.000000,0.000000,0.000000,0.000000,0.000000
5.144673,0.150000,0.000000,0.000000,0.000000,0.000000,0.000000
5.154673,0.150000,0.000000,0.000000,0.000000,0.000000,0.000000
5.164673,0.150000,0.000000,0.000000,0.000000,0.000000,0.000000
5.174673,0.150000,0.000000,0.000000,0.000000,0.000000,0.000000
5.184673,0.150000,0.000000,0.000000,0.000000,0.000000,0.000000
5.194673,0.150000,0.000000,0.000000,0.000000,0.000000,0.000000
5.204673,0.150000,0.000000,0.000000,0.000000,0.000000,0.000000
5.214673,0.150000,0.000000,0.000000,0.000000,0.000000,0.000000
5.224673,0.150000,0.000000,0.000000,0.000000,0.000000,0.000000
5.234673,0.150000,0.000000,0.000000,0.000000,0.000000,0.000000
5.244673,0.150000,0.000000,0.000000,0.000000,0.000000,0.000000
5.254673,0.150000,0.000000,0.000000,0.000000,0.000000,0.000000
5.264673,0.150000,0.000000,0.000000,0.000000,0.000000,0.000000
5.274673,0.150000,0.000000,0.000000,0.000000,0.000000,0.000000
5.284673,0.150000,0.000000,0.000000,0.000000,0.000000,0.000000
5.294673,0.150000,0.000000,0.000000,0.000000,0.000000,0.000000
5.304673,0.150000,0.000000,0.000000,0.000000,0.000000,0.000000
5.314673,0.150000,0.000000,0.000000,0.000000,0.000000,0.000000
5.324673,0.150000,0.000000,0.000000,0.000000,0.000000,0.000000
5.334673,0.150000,0.000000,0.000000,0.000000,0.000000,0.000000
5.344673,0.150000,0.000000,0.000000,0.000000,0.000000,0.000000
5.354673,0.150000,0.000000,0.000000,0.000000,0.000000,0.000000
5.364673,0.150000,0.000000,0.000000,0.000000,0.000000,0.000000
5.374673,0.150000,0.000000,0.000000,0.000000,0.000000,0.000000
5.384673,0.150000,0.000000,0.000000,0.000000,0.000000,0.000000
5.394673,0.150000,0.000000,0.000000,0.000000,0.000000,0.000000
5.404673,0.150000,0.000000,0.000000,0.000000,0.000000,0.000000
5.414673,0.150000,0.000000,0.000000,0.000000,0.000000,0.000000
5.424673,0.150000,0.000000,0.000000,0.000000,0.000000,0.000000
5.434673,0.150000,0.000000,0.000000,0.000000,0.000000,0.000000
5.444673,0.150000,0.000000,0.000000,0.000000,0.000000,0.000000
5.454673,0.150000,0.000000,0.000000,0.000000,0.000000,0.000000
5.464673,0.150000,0.000000,0.000000,0.000000,0.000000,0.000000
5.474673,0.150000,0.000000,0.000000,0.000000,0.000000,0.000000
5.484673,0.150000,0.000000,0.000000,0.000000,0.000000,0.000000
5.494673,0.150000,0.000000,0.000000,0.000000,0.000000,0.000000
5.504673,0.150000,0.000000,0.000000,0.000000,0.000000,0.000000
5.514673,0.150000,0.000000,0.000000,0.000000,0.000000,0.000000
5.524673,0.150000,0.000000,0.000000,0.000000,0.000000,0.000000
5.534673,0.150000,0.000000,0.000000,0.000000,0.000000,0.000000
5.544673,0.150000,0.000000,0.000000,0.000000,0.000000,0.000000
5.554673,0.150000,0.000000,0.000000,0.000000,0.000000,0.000000
5.564673,0.150000,0.000000,0.000000,0.000000,0.000000,0.000000
5.574673,0.150000,0.000000,0.000000,0.000000,0.000000,0.000000
5.584673,0.150000,0.000000,0.000000,0.000000,0.000000,0.000000
5.594673,0.150000,0.000000,0.000000,0.000000,0.000000,0.000000
5.604673,0.150000,0.000000,0.000000,0.000000,0.000000,0.000000
5.614673,0.150000,0.000000,0.000000,0.000000,0.000000,0.000000
5.624673,0.150000,0.000000,0.000000,0.000000,0.000000,0.000000
5.634673,0.150000,0.000000,0.000000,0.000000,0.000000,0.000000
5.644673,0.150000,0.000000,0.000000,0.000000,0.000000,0.000000
5.654673,0.150000,0.000000,0.000000,0.000000,0.000000,0.000000
5.664673,0.150000,0.000000,0.000000,0.000000,0.000000,0.000000
5.674673,0.150000,0.000000,0.000000,0.000000,0.000000,0.000000
5.684673,0.150000,0.000000,0.000000,0.000000,0.000000,0.000000
5.694673,0.150000,0.000000,0.000000,0.000000,0.000000,0.000000
5.704673,0.150000,0.000000,0.000000,0.000000,0.000000,0.000000
5.714673,0.150000,0.000000,0.000000,0.000000,0.000000,0.000000
5.724673,0.150000,0.000000,0.000000,0.000000,0.000000,0.000000
5.734673,0.150000,0.000000,0.000000,0.000000,0.000000,0.000000
5.744673,0.150000,0.000000,0.000000,0.000000,0.000000,0.000000
5.754673,0.150000,0.000000,0.000000,0.000000,0.000000,0.000000
5.764673,0.150000,0.000000,0.000000,0.000000,0.000000,0.000000
5.774673,0.150000,0.000000,0.000000,0.000000,0.000000,0.000000
5.784673,0.150000,0.000000,0.000000,0.000000,0.000000,0.000000
5.794673,0.150000,0.000000,0.000000,0.000000,0.000000,0.000000
5.804673,0.150000,0.000000,0.000000,0.000000,0.000000,0.000000
5.814673,0.150000,0.000000,0.000000,0.000000,0.000000,0.000000
5.824673,0.150000,0.000000,0.000000,0.000000,0.000000,0.000000
5.834673,0.150000,0.000000,0.000000,0.000000,0.000000,0.000000
5.844673,0.150000,0.000000,0.000000,0.000000,0.000000,0.000000
5.854673,0.150000,0.000000,0.000000,0.000000,0.000000,0.000000
5.864673,0.150000,0.000000,0.000000,0.000000,0.000000,0.000000
5.874673,0.150000,0.000000,0.000000,0.000000,0.000000,0.000000
5.884673,0.150000,0.000000,0.000000,0.000000,0.000000,0.000000
5.894673,0.150000,0.000000,0.000000,0.000000,0.000000,0.000000
5.904673,0.150000,0.000000,0.000000,0.000000,0.000000,0.000000
5.914673,0.150000,0.000000,0.000000,0.000000,0.000000,0.000000
5.924673,0.150000,0.000000,0.000000,0.000000,0.000000,0.000000
5.934673,0.150000,0.000000,0.000000,0.000000,0.000000,0.000000
5.944673,0.150000,0.000000,0.000000,0.000000,0.000000,0.000000
5.954673,0.150000,0.000000,0.000000,0.000000,0.000000,0.000000
5.964673,0.150000,0.000000,0.000000,0.000000,0.000000,0.000000
5.974673,0.150000,0.000000,0.000000,0.000000,0.000000,0.000000
5.984673,0.150000,0.000000,0.000000,0.000000,0.000000,0.000000
5.994673,0.150000,0.000000,0.000000,0.000000,0.000000,0.000000
6.004673,0.150000,0.000000,0.000000,0.000000,0.000000,0.000000
6.014673,0.150000,0.000000,0.000000,0.000000,0.000000,0.000000
6.024673,0.150000,0.000000,0.000000,0.000000,0.000000,0.000000
6.034673,0.150000,0.000000,0.000000,0.000000,0.000000,0.000000
6.044673,0.150000,0.000000,0.000000,0.000000,0.000000,0.000000
6.054673,0.150000,0.000000,0.000000,0.000000,0.000000,0.000000
6.064673,0.150000,0.000000,0.000000,0.000000,0.000000,0.000000
6.074673,0.150000,0.000000,0.000000,0.000000,0.000000,0.000000
6.084673,0.150000,0.000000,0.000000,0.000000,0.000000,0.000000
6.094673,0.150000,0.000000,0.000000,0.000000,0.000000,0.000000
6.104673,0.150000,0.000000,0.000000,0.000000,0.000000,0.000000
6.114673,0.150000,0.000000,0.000000,0.000000,0.000000,0.000000
6.124673,0.150000,0.000000,0.000000,0.000000,0.000000,0.000000
6.134673,0.150000,0.000000,0.000000,0.000000,0.000000,0.000000
6.144673,0.150000,0.000000,0.000000,0.000000,0.000000,0.000000
6.154673,0.150000,0.000000,0.000000,0.000000,0.000000,0.000000
6.164673,0.150000,0.000000,0.000000,0.000000,0.000000,0.000000
6.174673,0.150000,0.000000,0.000000,0.000000,0.000000,0.000000
6.184673,0.150000,0.000000,0.000000,0.000000,0.000000,0.000000
6.194673,0.150000,0.000000,0.000000,0.000000,0.000000,0.000000
6.204673,0.150000,0.000000,0.000000,0.000000,0.000000,0.000000
6.214673,0.150000,0.000000,0.000000,0.000000,0.000000,0.000000
6.224673,0.150000,0.000000,0.000000,0.000000,0.000000,0.000000
6.234673,0.150000,0.000000,0.000000,0.000000,0.000000,0.000000
6.244673,0.150000,0.000000,0.000000,0.000000,0.000000,0.000000
6.254673,0.150000,0.000000,0.000000,0.000000,0.000000,0.000000
6.264673,0.150000,0.000000,0.000000,0.000000,0.000000,0.000000
6.274673,0.150000,0.000000,0.000000,0.000000,0.000000,0.000000
6.284673,0.150000,0.000000,0.000000,0.000000,0.000000,0.000000
6.294673,0.150000,0.000000,0.000000,0.000000,0.000000,0.000000
6.304673,0.150000,0.000000,0.000000,0.000000,0.000000,0.000000
6.314673,0.150000,0.000000,0.000000,0.000000,0.000000,0.000000
6.324673,0.150000,0.000000,0.000000,0.000000,0.000000,0.000000
6.334673,0.150000,0.000000,0.000000,0.000000,0.000000,0.000000
6.344673,0.150000,0.000000,0.000000,0.000000,0.000000,0.000000
6.354673,0.150000,0.000000,0.000000,0.000000,0.000000,0.000000
6.364673,0.150000,0.000000,0.000000,0.000000,0.000000,0.000000
6.374673,0.150000,0.000000,0.000000,0.000000,0.000000,0.000000
6.384673,0.150000,0.000000,0.000000,0.000000,0.000000,0.000000
6.394673,0.150000,0.000000,0.000000,0.000000,0.000000,0.000000
6.404673,0.150000,0.000000,0.000000,0.000000,0.000000,0.000000
6.414673,0.150000,0.000000,0.000000,0.000000,0.000000,0.000000
6.424673,0.150000,0.000000,0.000000,0.000000,0.000000,0.000000
6.434673,0.150000,0.000000,0.000000,0.000000,0.000000,0.000000
6.444673,0.150000,0.000000,0.000000,0.000000,0.000000,0.000000
6.454673,0.150000,0.000000,0.000000,0.000000,0.000000,0.000000
6.464673,0.150000,0.000000,0.000000,0.000000,0.000000,0.000000
6.474673,0.150000,0.000000,0.000000,0.000000,0.000000,0.000000
6.484673,0.150000,0.000000,0.000000,0.000000,0.000000,0.000000
6.494673,0.150000,0.000000,0.000000,0.000000,0.000000,0.000000
6.504673,0.150000,0.000000,0.000000,0.000000,0.000000,0.000000
6.514673,0.150000,0.000000,0.000000,0.000000,0.000000,0.000000
6.524673,0.150000,0.000000,0.000000,0.000000,0.000000,0.000000
6.534673,0.150000,0.000000,0.000000,0.000000,0.000000,0.000000
6.544673,0.150000,0.000000,0.000000,0.000000,0.000000,0.000000
6.554673,0.150000,0.000000,0.000000,0.000000,0.000000,0.000000
6.564673,0.150000,0.000000,0.000000,0.000000,0.000000,0.000000
6.574673,0.150000,0.000000,0.000000,0.000000,0.000000,0.000000
6.584673,0.150000,0.000000,0.000000,0.000000,0.000000,0.000000
6.594673,0.150000,0.000000,0.000000,0.000000,0.000000,0.000000
6.604673,0.150000,0.000000,0.000000,0.000000,0.000000,0.000000
6.614673,0.150000,0.000000,0.000000,0.000000,0.000000,0.000000
6.624673,0.150000,0.000000,0.000000,0.000000,0.000000,0.000000
6.634673,0.150000,0.000000,0.000000,0.000000,0.000000,0.000000
6.644673,0.150000,0.000000,0.000000,0.000000,0.000000,0.000000
6.654673,0.150000,0.000000,0.000000,0.000000,0.000000,0.000000
6.664673,0.150000,0.000000,0.000000,0.000000,0.000000,0.000000
6.674673,0.150000,0.000000,0.000000,0.000000,0.000000,0.000000
6.684673,0.150000,0.000000,0.000000,0.000000,0.000000,0.000000
6.694673,0.150000,0.000000,0.000000,0.000000,0.000000,0.000000
6.704673,0.150000,0.000000,0.000000,0.000000,0.000000,0.000000
6.714673,0.150000,0.000000,0.000000,0.000000,0.000000,0.000000
6.724673,0.150000,0.000000,0.000000,0.000000,0.000000,0.000000
6.734673,0.150000,0.000000,0.000000,0.000000,0.000000,0.000000
6.744673,0.150000,0.000000,0.000000,0.000000,0.000000,0.000000
6.754673,0.150000,0.000000,0.000000,0.000000,0.000000,0.000000
6.764673,0.150000,0.000000,0.000000,0.000000,0.000000,0.000000
6.774673,0.150000,0.000000,0.000000,0.000000,0.000000,0.000000
6.784673,0.150000,0.000000,0.000000,0.000000,0.000000,0.000000
6.794673,0.150000,0.000000,0.000000,0.000000,0.000000,0.000000
6.804673,0.150000,0.000000,0.000000,0.000000,0.000000,0.000000
6.814673,0.150000,0.000000,0.000000,0.000000,0.000000,0.000000
6.824673,0.150000,0.000000,0.000000,0.000000,0.000000,0.000000
6.834673,0.150000,0.000000,0.000000,0.000000,0.000000,0.000000
6.844673,0.150000,0.000000,0.000000,0.000000,0.000000,0.000000
6.854673,0.150000,0.000000,0.000000,0.000000,0.000000,0.000000
6.864673,0.150000,0.000000,0.000000,0.000000,0.000000,0.000000
6.874673,0.150000,0.000000,0.000000,0.000000,0.000000,0.000000
6.884673,0.150000,0.000000,0.000000,0.000000,0.000000,0.000000
6.894673,0.150000,0.000000,0.000000,0.000000,0.000000,0.000000
6.904673,0.150000,0.000000,0.000000,0.000000,0.000000,0.000000
6.914673,0.150000,0.000000,0.000000,0.000000,0.000000,0.000000
6.924673,0.150000,0.000000,0.000000,0.000000,0.000000,0.000000
6.934673,0.150000,0.000000,0.000000,0.000000,0.000000,0.000000
6.944673,0.150000,0.000000,0.000000,0.000000,0.000000,0.000000
6.954673,0.150000,0.000000,0.000000,0.000000,0.000000,0.000000
6.964673,0.150000,0.000000,0.000000,0.000000,0.000000,0.000000
6.974673,0.150000,0.000000,0.000000,0.000000,0.000000,0.000000
6.984673,0.150000,0.000000,0.000000,0.000000,0.000000,0.000000
6.994673,0.150000,0.000000,0.000000,0.000000,0.000000,0.000000
7.004673,0.150000,0.000000,0.000000,0.000000,0.000000,0.000000
7.014673,0.150000,0.000000,0.000000,0.000000,0.000000,0.000000
7.024673,0.150000,0.000000,0.000000,0.000000,0.000000,0.000000
7.034673,0.150000,0.000000,0.000000,0.000000,0.000000,0.000000
7.044673,0.150000,0.000000,0.000000,0.000000,0.000000,0.000000
7.054673,0.150000,0.000000,0.000000,0.000000,0.000000,0.000000
7.064673,0.150000,0.000000,0.000000,0.000000,0.000000,0.000000
7.074673,0.150000,0.000000,0.000000,0.000000,0.000000,0.000000
7.084673,0.150000,0.000000,0.000000,0.000000,0.000000,0.000000
7.094673,0.150000,0.000000,0.000000,0.000000,0.000000,0.000000
7.104673,0.150000,0.000000,0.000000,0.000000,0.000000,0.000000
7.114673,0.150000,0.000000,0.000000,0.000000,0.000000,0.000000
7.124673,0.150000,0.000000,0.000000,0.000000,0.000000,0.000000
7.134673,0.150000,0.000000,0.000000,0.000000,0.000000,0.000000
7.144673,0.150000,0.000000,0.000000,0.000000,0.000000,0.000000
7.154673,0.150000,0.000000,0.000000,0.000000,0.000000,0.000000
7.164673,0.150000,0.000000,0.000000,0.000000,0.000000,0.000000
7.174673,0.150000,0.000000,0.000000,0.000000,0.000000,0.000000
7.184673,0.150000,0.000000,0.000000,0.000000,0.000000,0.000000
7.194673,0.150000,0.000000,0.000000,0.000000,0.000000,0.000000
7.204673,0.150000,0.000000,0.000000,0.000000,0.000000,0.000000
7.214673,0.150000,0.000000,0.000000,0.000000,0.000000,0.000000
7.224673,0.150000,0.000000,0.000000,0.000000,0.000000,0.000000
7.234673,0.150000,0.000000,0.000000,0.000000,0.000000,0.000000
7.244673,0.150000,0.000000,0.000000,0.000000,0.000000,0.000000
7.254673,0.150000,0.000000,0.000000,0.000000,0.000000,0.000000
7.264673,0.150000,0.000000,0.000000,0.000000,0.000000,0.000000
7.274673,0.150000,0.000000,0.000000,0.000000,0.000000,0.000000
7.284673,0.150000,0.000000,0.000000,0.000000,0.000000,0.000000
7.294673,0.150000,0.000000,0.000000,0.000000,0.000000,0.000000
7.304673,0.150000,0.000000,0.000000,0.000000,0.000000,0.000000
7.314673,0.150000,0.000000,0.000000,0.000000,0.000000,0.000000
7.324673,0.150000,0.000000,0.000000,0.000000,0.000000,0.000000
7.334673,0.150000,0.000000,0.000000,0.000000,0.000000,0.000000
7.344673,0.150000,0.000000,0.000000,0.000000,0.000000,0.000000
7.354673,0.150000,0.000000,0.000000,0.000000,0.000000,0.000000
7.364673,0.150000,0.000000,0.000000,0.000000,0.000000,0.000000
7.374673,0.150000,0.000000,0.000000,0.000000,0.000000,0.000000
7.384673,0.150000,0.000000,0.000000,0.000000,0.000000,0.000000
7.394673,0.150000,0.000000,0.000000,0.000000,0.000000,0.000000
7.404673,0.150000,0.000000,0.000000,0.000000,0.000000,0.000000
7.414673,0.150000,0.000000,0.000000,0.000000,0.000000,0.000000
7.424673,0.150000,0.000000,0.000000,0.000000,0.000000,0.000000
7.434673,0.150000,0.000000,0.000000,0.000000,0.000000,0.000000
7.444673,0.150000,0.000000,0.000000,0.000000,0.000000,0.000000
7.454673,0.150000,0.000000,0.000000,0.000000,0.000000,0.000000
7.464673,0.150000,0.000000,0.000000,0.000000,0.000000,0.000000
7.474673,0.150000,0.000000,0.000000,0.000000,0.000000,0.000000
7.484673,0.150000,0.000000,0.000000,0.000000,0.000000,0.000000
7.494673,0.150000,0.000000,0.000000,0.000000,0.000000,0.000000
7.504673,0.150000,0.000000,0.000000,0.000000,0.000000,0.000000
7.514673,0.150000,0.000000,0.000000,0.000000,0.000000,0.000000
7.524673,0.150000,0.000000,0.000000,0.000000,0.000000,0.000000
7.534673,0.150000,0.000000,0.000000,0.000000,0.000000,0.000000
7.544673,0.150000,0.000000,0.000000,0.000000,0.000000,0.000000
7.554673,0.150000,0.000000,0.000000,0.000000,0.000000,0.000000
7.564673,0.150000,0.000000,0.000000,0.000000,0.000000,0.000000
7.574673,0.150000,0.000000,0.000000,0.000000,0.000000,0.000000
7.584673,0.150000,0.000000,0.000000,0.000000,0.000000,0.000000
7.594673,0.150000,0.000000,0.000000,0.000000,0.000000,0.000000
7.604673,0.150000,0.000000,0.000000,0.000000,0.000000,0.000000
7.614673,0.150000,0.000000,0.000000,0.000000,0.000000,0.000000
7.624673,0.150000,0.000000,0.000000,0.000000,0.000000,0.000000
7.634673,0.150000,0.000000,0.000000,0.000000,0.000000,0.000000
7.644673,0.150000,0.000000,0.000000,0.000000,0.000000,0.000000
7.654673,0.150000,0.000000,0.000000,0.000000,0.000000,0.000000
7.664673,0.150000,0.000000,0.000000,0.000000,0.000000,0.000000
7.674673,0.150000,0.000000,0.000000,0.000000,0.000000,0.000000
7.684673,0.150000,0.000000,0.000000,0.000000,0.000000,0.000000
7.694673,0.150000,0.000000,0.000000,0.000000,0.000000,0.000000
7.704673,0.150000,0.000000,0.000000,0.000000,0.000000,0.000000
7.714673,0.150000,0.000000,0.000000,0.000000,0.000000,0.000000
7.724673,0.150000,0.000000,0.000000,0.000000,0.000000,0.000000
7.734673,0.150000,0.000000,0.000000,0.000000,0.000000,0.000000
7.744673,0.150000,0.000000,0.000000,0.000000,0.000000,0.000000
7.754673,0.150000,0.000000,0.000000,0.000000,0.000000,0.000000
7.764673,0.150000,0.000000,0.000000,0.000000,0.000000,0.000000
7.774673,0.150000,0.000000,0.000000,0.000000,0.000000,0.000000
7.784673,0.150000,0.000000,0.000000,0.000000,0.000000,0.000000
7.794673,0.150000,0.000000,0.000000,0.000000,0.000000,0.000000
7.804673,0.150000,0.000000,0.000000,0.000000,0.000000,0.000000
7.814673,0.150000,0.000000,0.000000,0.000000,0.000000,0.000000
7.824673,0.150000,0.000000,0.000000,0.000000,0.000000,0.000000
7.834673,0.150000,0.000000,0.000000,0.000000,0.000000,0.000000
7.844673,0.150000,0.000000,0.000000,0.000000,0.000000,0.000000
7.854673,0.150000,0.000000,0.000000,0.000000,0.000000,0.000000
7.864673,0.150000,0.000000,0.000000,0.000000,0.000000,0.000000
7.874673,0.150000,0.000000,0.000000,0.000000,0.000000,0.000000
7.884673,0.150000,0.000000,0.000000,0.000000,0.000000,0.000000
7.894673,0.150000,0.000000,0.000000,0.000000,0.000000,0.000000
7.904673,0.150000,0.000000,0.000000,0.000000,0.000000,0.000000
7.914673,0.150000,0.000000,0.000000,0.000000,0.000000,0.000000
7.924673,0.150000,0.000000,0.000000,0.000000,0.000000,0.000000
7.934673,0.150000,0.000000,0.000000,0.000000,0.000000,0.000000
7.944673,0.150000,0.000000,0.000000,0.000000,0.000000,0.000000
7.954673,0.150000,0.000000,0.000000,0.000000,0.000000,0.000000
7.964673,0.150000,0.000000,0.000000,0.000000,0.000000,0.000000
7.974673,0.150000,0.000000,0.000000,0.000000,0.000000,0.000000
7.984673,0.150000,0.000000,0.000000,0.000000,0.000000,0.000000
7.994673,0.150000,0.000000,0.000000,0.000000,0.000000,0.000000
8.004673,0.150000,0.000000,0.000000,0.000000,0.000000,0.000000
8.014673,0.150000,0.000000,0.000000,0.000000,0.000000,0.000000
8.024673,0.150000,0.000000,0.000000,0.000000,0.000000,0.000000
8.034673,0.150000,0.000000,0.000000,0.000000,0.000000,0.000000
8.044673,0.150000,0.000000,0.000000,0.000000,0.000000,0.000000
8.054673,0.150000,0.000000,0.000000,0.000000,0.000000,0.000000
8.064673,0.135650,0.000000,0.000000,0.000000,0.000000,0.000000
8.074673,0.135650,0.000000,0.000000,0.000000,0.000000,0.000000
8.084673,0.135650,0.000000,0.000000,0.000000,0.000000,0.000000
8.094673,0.135650,0.000000,0.000000,0.000000,0.000000,0.000000
8.104673,0.135650,0.000000,0.000000,0.000000,0.000000,0.000000
8.114673,0.135650,0.000000,0.000000,0.000000,0.000000,0.000000
8.124673,0.135650,0.000000,0.000000,0.000000,0.000000,0.000000
8.134673,0.135650,0.000000,0.000000,0.000000,0.000000,0.000000
8.144673,0.135650,0.000000,0.000000,0.000000,0.000000,0.000000
8.154673,0.135650,0.000000,0.000000,0.000000,0.000000,0.000000
8.164673,0.135650,0.000000,0.000000,0.000000,0.000000,0.000000
8.174673,0.135650,0.000000,0.000000,0.000000,0.000000,0.000000
8.184673,0.135650,0.000000,0.000000,0.000000,0.000000,0.000000
8.194673,0.135650,0.000000,0.000000,0.000000,0.000000,0.000000
8.204673,0.135650,0.000000,0.000000,0.000000,0.000000,0.000000
8.214673,0.135650,0.000000,0.000000,0.000000,0.000000,0.000000
8.224673,0.135650,0.000000,0.000000,0.000000,0.000000,0.000000
8.234673,0.135650,0.000000,0.000000,0.000000,0.000000,0.000000
8.244673,0.115053,0.000000,0.000000,0.000000,0.000000,0.000000
8.254673,0.115053,0.000000,0.000000,0.000000,0.000000,0.000000
8.264673,0.115053,0.000000,0.000000,0.000000,0.000000,0.000000
8.274673,0.115053,0.000000,0.000000,0.000000,0.000000,0.000000
8.284673,0.115053,0.000000,0.000000,0.000000,0.000000,0.000000
8.294673,0.115053,0.000000,0.000000,0.000000,0.000000,0.000000
8.304673,0.115053,0.000000,0.000000,0.000000,0.000000,0.000000
8.314673,0.115053,0.000000,0.000000,0.000000,0.000000,0.000000
8.324673,0.115053,0.000000,0.000000,0.000000,0.000000,0.000000
8.334673,0.115053,0.000000,0.000000,0.000000,0.000000,0.000000
8.344673,0.115053,0.000000,0.000000,0.000000,0.000000,0.000000
8.354673,0.115053,0.000000,0.000000,0.000000,0.000000,0.000000
8.364673,0.104218,0.000000,0.000000,0.000000,0.000000,0.000000
8.374673,0.104218,0.000000,0.000000,0.000000,0.000000,0.000000
8.384673,0.104218,0.000000,0.000000,0.000000,0.000000,0.000000
8.394673,0.104218,0.000000,0.000000,0.000000,0.000000,0.000000
8.404673,0.104218,0.000000,0.000000,0.000000,0.000000,0.000000
8.414673,0.104218,0.000000,0.000000,0.000000,0.000000,0.000000
8.424673,0.104218,0.000000,0.000000,0.000000,0.000000,0.000000
8.434673,0.104218,0.000000,0.000000,0.000000,0.000000,0.000000
8.444673,0.104218,0.000000,0.000000,0.000000,0.000000,0.000000
8.454673,0.104218,0.000000,0.000000,0.000000,0.000000,0.000000
8.464673,0.104218,0.000000,0.000000,0.000000,0.000000,0.000000
8.474673,0.104218,0.000000,0.000000,0.000000,0.000000,0.000000
8.484673,0.104218,0.000000,0.000000,0.000000,0.000000,0.000000
8.494673,0.104218,0.000000,0.000000,0.000000,0.000000,0.000000
8.504673,0.104218,0.000000,0.000000,0.000000,0.000000,0.000000
8.514673,0.100819,0.000000,0.000000,0.000000,0.000000,0.000000
8.524673,0.100819,0.000000,0.000000,0.000000,0.000000,0.000000
8.534673,0.100819,0.000000,0.000000,0.000000,0.000000,0.000000
8.544673,0.100819,0.000000,0.000000,0.000000,0.000000,0.000000
8.554673,0.100819,0.000000,0.000000,0.000000,0.000000,0.000000
8.564673,0.100819,0.000000,0.000000,0.000000,0.000000,0.000000
8.574673,0.100819,0.000000,0.000000,0.000000,0.000000,0.000000
8.584673,0.100819,0.000000,0.000000,0.000000,0.000000,0.000000
8.594673,0.100819,0.000000,0.000000,0.000000,0.000000,0.000000
8.604673,0.100819,0.000000,0.000000,0.000000,0.000000,0.000000
8.614673,0.100819,0.000000,0.000000,0.000000,0.000000,0.000000
8.624673,0.099963,0.000000,0.000000,0.000000,0.000000,0.000000
8.634673,0.099963,0.000000,0.000000,0.000000,0.000000,0.000000
8.644673,0.099963,0.000000,0.000000,0.000000,0.000000,0.000000
8.654673,0.099963,0.000000,0.000000,0.000000,0.000000,0.000000
8.664673,0.099963,0.000000,0.000000,0.000000,0.000000,0.000000
8.674673,0.099963,0.000000,0.000000,0.000000,0.000000,0.000000
8.684673,0.099963,0.000000,0.000000,0.000000,0.000000,0.000000
8.694673,0.099963,0.000000,0.000000,0.000000,0.000000,0.000000
8.704673,0.099963,0.000000,0.000000,0.000000,0.000000,0.000000
8.714673,0.099963,0.000000,0.000000,0.000000,0.000000,0.000000
8.724673,0.099963,0.000000,0.000000,0.000000,0.000000,0.000000
8.734673,0.099963,0.000000,0.000000,0.000000,0.000000,0.000000
8.744673,0.099963,0.000000,0.000000,0.000000,0.000000,0.000000
8.754673,0.099963,0.000000,0.000000,0.000000,0.000000,0.000000
8.764673,0.100766,0.000000,0.000000,0.000000,0.000000,0.000000
8.774673,0.100766,0.000000,0.000000,0.000000,0.000000,0.000000
8.784673,0.100766,0.000000,0.000000,0.000000,0.000000,0.000000
8.794673,0.100766,0.000000,0.000000,0.000000,0.000000,0.000000
8.804673,0.100766,0.000000,0.000000,0.000000,0.000000,0.000000
8.814673,0.100766,0.000000,0.000000,0.000000,0.000000,0.000000
8.824673,0.100766,0.000000,0.000000,0.000000,0.000000,0.000000
8.834673,0.100766,0.000000,0.000000,0.000000,0.000000,0.000000
8.844673,0.100766,0.000000,0.000000,0.000000,0.000000,0.000000
8.854673,0.100766,0.000000,0.000000,0.000000,0.000000,0.000000
8.864673,0.100766,0.000000,0.000000,0.000000,0.000000,0.000000
8.874673,0.100766,0.000000,0.000000,0.000000,0.000000,0.000000
8.884673,0.100766,0.000000,0.000000,0.000000,0.000000,0.000000
8.894673,0.100766,0.000000,0.000000,0.000000,0.000000,0.000000
8.904673,0.100766,0.000000,0.000000,0.000000,0.000000,0.000000
8.914673,0.100766,0.000000,0.000000,0.000000,0.000000,0.000000
8.924673,0.100766,0.000000,0.000000,0.000000,0.000000,0.000000
8.934673,0.100766,0.000000,0.000000,0.000000,0.000000,0.000000
8.944673,0.100897,0.000000,0.000000,0.000000,0.000000,0.000000
8.954673,0.100897,0.000000,0.000000,0.000000,0.000000,0.000000
8.964673,0.100897,0.000000,0.000000,0.000000,0.000000,0.000000
8.974673,0.100897,0.000000,0.000000,0.000000,0.000000,0.000000
8.984673,0.100897,0.000000,0.000000,0.000000,0.000000,0.000000
8.994673,0.100897,0.000000,0.000000,0.000000,0.000000,0.000000
9.004673,0.100897,0.000000,0.000000,0.000000,0.000000,0.000000
9.014673,0.100897,0.000000,0.000000,0.000000,0.000000,0.000000
9.024673,0.100897,0.000000,0.000000,0.000000,0.000000,0.000000
9.034673,0.100897,0.000000,0.000000,0.000000,0.000000,0.000000
9.044673,0.100897,0.000000,0.000000,0.000000,0.000000,0.000000
9.054673,0.100897,0.000000,0.000000,0.000000,0.000000,0.000000
9.064673,0.099247,0.000000,0.000000,0.000000,0.000000,0.000000
9.074673,0.099247,0.000000,0.000000,0.000000,0.000000,0.000000
9.084673,0.099247,0.000000,0.000000,0.000000,0.000000,0.000000
9.094673,0.099247,0.000000,0.000000,0.000000,0.000000,0.000000
9.104673,0.099247,0.000000,0.000000,0.000000,0.000000,0.000000
9.114673,0.099247,0.000000,0.000000,0.000000,0.000000,0.000000
9.124673,0.099247,0.000000,0.000000,0.000000,0.000000,0.000000
9.134673,0.099247,0.000000,0.000000,0.000000,0.000000,0.000000
9.144673,0.099247,0.000000,0.000000,0.000000,0.000000,0.000000
9.154673,0.099247,0.000000,0.000000,0.000000,0.000000,0.000000
9.164673,0.099247,0.000000,0.000000,0.000000,0.000000,0.000000
9.174673,0.099247,0.000000,0.000000,0.000000,0.000000,0.000000
9.184673,0.099247,0.000000,0.000000,0.000000,0.000000,0.000000
9.194673,0.099247,0.000000,0.000000,0.000000,0.000000,0.000000
9.204673,0.099247,0.000000,0.000000,0.000000,0.000000,0.000000
9.214673,0.099247,0.000000,0.000000,0.000000,0.000000,0.000000
9.224673,0.099247,0.000000,0.000000,0.000000,0.000000,0.000000
9.234673,0.096162,0.000000,0.000000,0.000000,0.000000,0.000000
9.244673,0.096162,0.000000,0.000000,0.000000,0.000000,0.000000
9.254673,0.096162,0.000000,0.000000,0.000000,0.000000,0.000000
9.264673,0.096162,0.000000,0.000000,0.000000,0.000000,0.000000
9.274673,0.096162,0.000000,0.000000,0.000000,0.000000,0.000000
9.284673,0.096162,0.000000,0.000000,0.000000,0.000000,0.000000
9.294673,0.096162,0.000000,0.000000,0.000000,0.000000,0.000000
9.304673,0.096162,0.000000,0.000000,0.000000,0.000000,0.000000
9.314673,0.096162,0.000000,0.000000,0.000000,0.000000,0.000000
9.324673,0.096162,0.000000,0.000000,0.000000,0.000000,0.000000
9.334673,0.096162,0.000000,0.000000,0.000000,0.000000,0.000000
9.344673,0.096162,0.000000,0.000000,0.000000,0.000000,0.000000
9.354673,0.096162,0.000000,0.000000,0.000000,0.000000,0.000000
9.364673,0.092295,0.000000,0.000000,0.000000,0.000000,0.000000
9.374673,0.092295,0.000000,0.000000,0.000000,0.000000,0.000000
9.384673,0.092295,0.000000,0.000000,0.000000,0.000000,0.000000
9.394673,0.092295,0.000000,0.000000,0.000000,0.000000,0.000000
9.404673,0.092295,0.000000,0.000000,0.000000,0.000000,0.000000
9.414673,0.092295,0.000000,0.000000,0.000000,0.000000,0.000000
9.424673,0.092295,0.000000,0.000000,0.000000,0.000000,0.000000
9.434673,0.092295,0.000000,0.000000,0.000000,0.000000,0.000000
9.444673,0.092295,0.000000,0.000000,0.000000,0.000000,0.000000
9.454673,0.092295,0.000000,0.000000,0.000000,0.000000,0.000000
9.464673,0.092295,0.000000,0.000000,0.000000,0.000000,0.000000
9.474673,0.085357,0.000000,0.000000,0.000000,0.000000,0.000000
9.484673,0.085357,0.000000,0.000000,0.000000,0.000000,0.000000
9.494673,0.085357,0.000000,0.000000,0.000000,0.000000,0.000000
9.504673,0.085357,0.000000,0.000000,0.000000,0.000000,0.000000
9.514673,0.085357,0.000000,0.000000,0.000000,0.000000,0.000000
9.524673,0.085357,0.000000,0.000000,0.000000,0.000000,0.000000
9.534673,0.085357,0.000000,0.000000,0.000000,0.000000,0.000000
9.544673,0.085357,0.000000,0.000000,0.000000,0.000000,0.000000
9.554673,0.085357,0.000000,0.000000,0.000000,0.000000,0.000000
9.564673,0.085357,0.000000,0.000000,0.000000,0.000000,0.000000
9.574673,0.085357,0.000000,0.000000,0.000000,0.000000,0.000000
9.584673,0.085357,0.000000,0.000000,0.000000,0.000000,0.000000
9.594673,0.085357,0.000000,0.000000,0.000000,0.000000,0.000000
9.604673,0.085357,0.000000,0.000000,0.000000,0.000000,0.000000
9.614673,0.085357,0.000000,0.000000,0.000000,0.000000,0.000000
9.624673,0.076884,0.000000,0.000000,0.000000,0.000000,0.000000
9.634673,0.076884,0.000000,0.000000,0.000000,0.000000,0.000000
9.644673,0.076884,0.000000,0.000000,0.000000,0.000000,0.000000
9.654673,0.076884,0.000000,0.000000,0.000000,0.000000,0.000000
9.664673,0.076884,0.000000,0.000000,0.000000,0.000000,0.000000
9.674673,0.076884,0.000000,0.000000,0.000000,0.000000,0.000000
9.684673,0.076884,0.000000,0.000000,0.000000,0.000000,0.000000
9.694673,0.076884,0.000000,0.000000,0.000000,0.000000,0.000000
9.704673,0.076884,0.000000,0.000000,0.000000,0.000000,0.000000
9.714673,0.076884,0.000000,0.000000,0.000000,0.000000,0.000000
9.724673,0.076884,0.000000,0.000000,0.000000,0.000000,0.000000
9.734673,0.076884,0.000000,0.000000,0.000000,0.000000,0.000000
9.744673,0.076884,0.000000,0.000000,0.000000,0.000000,0.000000
9.754673,0.076884,0.000000,0.000000,0.000000,0.000000,0.000000
9.764673,0.076884,0.000000,0.000000,0.000000,0.000000,0.000000
9.774673,0.066728,0.000000,0.000000,0.000000,0.000000,0.000000
9.784673,0.066728,0.000000,0.000000,0.000000,0.000000,0.000000
9.794673,0.066728,0.000000,0.000000,0.000000,0.000000,0.000000
9.804673,0.066728,0.000000,0.000000,0.000000,0.000000,0.000000
9.814673,0.066728,0.000000,0.000000,0.000000,0.000000,0.000000
9.824673,0.066728,0.000000,0.000000,0.000000,0.000000,0.000000
9.834673,0.066728,0.000000,0.000000,0.000000,0.000000,0.000000
9.844673,0.066728,0.000000,0.000000,0.000000,0.000000,0.000000
9.854673,0.066728,0.000000,0.000000,0.000000,0.000000,0.000000
9.864673,0.066728,0.000000,0.000000,0.000000,0.000000,0.000000
9.874673,0.066728,0.000000,0.000000,0.000000,0.000000,0.000000
9.884673,0.066728,0.000000,0.000000,0.000000,0.000000,0.000000
9.894673,0.066728,0.000000,0.000000,0.000000,0.000000,0.000000
9.904673,0.066728,0.000000,0.000000,0.000000,0.000000,0.000000
9.914673,0.066728,0.000000,0.000000,0.000000,0.000000,0.000000
9.924673,0.054689,0.000000,0.000000,0.000000,0.000000,0.000000
9.934673,0.054689,0.000000,0.000000,0.000000,0.000000,0.000000
9.944673,0.054689,0.000000,0.000000,0.000000,0.000000,0.000000
9.954673,0.054689,0.000000,0.000000,0.000000,0.000000,0.000000
9.964673,0.054689,0.000000,0.000000,0.000000,0.000000,0.000000
9.974673,0.054689,0.000000,0.000000,0.000000,0.000000,0.000000
9.984673,0.054689,0.000000,0.000000,0.000000,0.000000,0.000000
9.994673,0.054689,0.000000,0.000000,0.000000,0.000000,0.000000
10.004673,0.054689,0.000000,0.000000,0.000000,0.000000,0.000000
10.014673,0.054689,0.000000,0.000000,0.000000,0.000000,0.000000
10.024673,0.054689,0.000000,0.000000,0.000000,0.000000,0.000000
10.034673,0.054689,0.000000,0.000000,0.000000,0.000000,0.000000
10.044673,0.054689,0.000000,0.000000,0.000000,0.000000,0.000000
10.054673,0.054689,0.000000,0.000000,0.000000,0.000000,0.000000
10.064673,0.054689,0.000000,0.000000,0.000000,0.000000,0.000000
10.074673,0.054689,0.000000,0.000000,0.000000,0.000000,0.000000
10.084673,0.054689,0.000000,0.000000,0.000000,0.000000,0.000000
10.094673,0.054689,0.000000,0.000000,0.000000,0.000000,0.000000
10.104673,0.054689,0.000000,0.000000,0.000000,0.000000,0.000000
10.114673,0.044717,0.000000,0.000000,0.000000,0.000000,0.000000
10.124673,0.044717,0.000000,0.000000,0.000000,0.000000,0.000000
10.134673,0.044717,0.000000,0.000000,0.000000,0.000000,0.000000
10.144673,0.044717,0.000000,0.000000,0.000000,0.000000,0.000000
10.154673,0.044717,0.000000,0.000000,0.000000,0.000000,0.000000
10.164673,0.044717,0.000000,0.000000,0.000000,0.000000,0.000000
10.174673,0.044717,0.000000,0.000000,0.000000,0.000000,0.000000
10.184673,0.044717,0.000000,0.000000,0.000000,0.000000,0.000000
10.194673,0.044717,0.000000,0.000000,0.000000,0.000000,0.000000
10.204673,0.044717,0.000000,0.000000,0.000000,0.000000,0.000000
10.214673,0.044717,0.000000,0.000000,0.000000,0.000000,0.000000
10.224673,0.044717,0.000000,0.000000,0.000000,0.000000,0.000000
10.234673,0.044717,0.000000,0.000000,0.000000,0.000000,0.000000
10.244673,0.044717,0.000000,0.000000,0.000000,0.000000,0.000000
10.254673,0.044717,0.000000,0.000000,0.000000,0.000000,0.000000
10.264673,0.035813,0.000000,0.000000,0.000000,0.000000,0.000000
10.274673,0.035813,0.000000,0.000000,0.000000,0.000000,0.000000
10.284673,0.035813,0.000000,0.000000,0.000000,0.000000,0.000000
10.294673,0.035813,0.000000,0.000000,0.000000,0.000000,0.000000
10.304673,0.035813,0.000000,0.000000,0.000000,0.000000,0.000000
10.314673,0.035813,0.000000,0.000000,0.000000,0.000000,0.000000
10.324673,0.035813,0.000000,0.000000,0.000000,0.000000,0.000000
10.334673,0.035813,0.000000,0.000000,0.000000,0.000000,0.000000
10.344673,0.035813,0.000000,0.000000,0.000000,0.000000,0.000000
10.354673,0.035813,0.000000,0.000000,0.000000,0.000000,0.000000
10.364673,0.035813,0.000000,0.000000,0.000000,0.000000,0.000000
10.374673,0.035813,0.000000,0.000000,0.000000,0.000000,0.000000
10.384673,0.035813,0.000000,0.000000,0.000000,0.000000,0.000000
10.394673,0.035813,0.000000,0.000000,0.000000,0.000000,0.000000
10.404673,0.025293,0.000000,0.000000,0.000000,0.000000,0.000000
10.414673,0.025293,0.000000,0.000000,0.000000,0.000000,0.000000
10.424673,0.025293,0.000000,0.000000,0.000000,0.000000,0.000000
10.434673,0.025293,0.000000,0.000000,0.000000,0.000000,0.000000
10.444673,0.025293,0.000000,0.000000,0.000000,0.000000,0.000000
10.454673,0.025293,0.000000,0.000000,0.000000,0.000000,0.000000
10.464673,0.025293,0.000000,0.000000,0.000000,0.000000,0.000000
10.474673,0.025293,0.000000,0.000000,0.000000,0.000000,0.000000
10.484673,0.025293,0.000000,0.000000,0.000000,0.000000,0.000000
10.494673,0.025293,0.000000,0.000000,0.000000,0.000000,0.000000
10.504673,0.025293,0.000000,0.000000,0.000000,0.000000,0.000000
10.514673,0.025293,0.000000,0.000000,0.000000,0.000000,0.000000
10.524673,0.025293,0.000000,0.000000,0.000000,0.000000,0.000000
10.534673,0.025293,0.000000,0.000000,0.000000,0.000000,0.000000
10.544673,0.025293,0.000000,0.000000,0.000000,0.000000,0.000000
10.554673,0.025293,0.000000,0.000000,0.000000,0.000000,0.000000
10.564673,0.025293,0.000000,0.000000,0.000000,0.000000,0.000000
10.574673,0.025293,0.000000,0.000000,0.000000,0.000000,0.000000
10.584673,0.017513,0.000000,0.000000,0.000000,0.000000,0.000000
10.594673,0.017513,0.000000,0.000000,0.000000,0.000000,0.000000
10.604673,0.017513,0.000000,0.000000,0.000000,0.000000,0.000000
10.614673,0.017513,0.000000,0.000000,0.000000,0.000000,0.000000
10.624673,0.017513,0.000000,0.000000,0.000000,0.000000,0.000000
10.634673,0.017513,0.000000,0.000000,0.000000,0.000000,0.000000
10.644673,0.017513,0.000000,0.000000,0.000000,0.000000,0.000000
10.654673,0.017513,0.000000,0.000000,0.000000,0.000000,0.000000
10.664673,0.017513,0.000000,0.000000,0.000000,0.000000,0.000000
10.674673,0.017513,0.000000,0.000000,0.000000,0.000000,0.000000
10.684673,0.017513,0.000000,0.000000,0.000000,0.000000,0.000000
10.694673,0.017513,0.000000,0.000000,0.000000,0.000000,0.000000
10.704673,0.017513,0.000000,0.000000,0.000000,0.000000,0.000000
10.714673,0.017513,0.000000,0.000000,0.000000,0.000000,0.000000
10.724673,0.017513,0.000000,0.000000,0.000000,0.000000,0.000000
10.734673,0.011131,0.000000,0.000000,0.000000,0.000000,0.000000
10.744673,0.011131,0.000000,0.000000,0.000000,0.000000,0.000000
10.754673,0.011131,0.000000,0.000000,0.000000,0.000000,0.000000
10.764673,0.011131,0.000000,0.000000,0.000000,0.000000,0.000000
10.774673,0.011131,0.000000,0.000000,0.000000,0.000000,0.000000
10.784673,0.011131,0.000000,0.000000,0.000000,0.000000,0.000000
10.794673,0.011131,0.000000,0.000000,0.000000,0.000000,0.000000
10.804673,0.011131,0.000000,0.000000,0.000000,0.000000,0.000000
10.814673,0.011131,0.000000,0.000000,0.000000,0.000000,0.000000
10.824673,0.011131,0.000000,0.000000,0.000000,0.000000,0.000000
10.834673,0.011131,0.000000,0.000000,0.000000,0.000000,0.000000
10.844673,0.011131,0.000000,0.000000,0.000000,0.000000,0.000000
10.854673,0.011131,0.000000,0.000000,0.000000,0.000000,0.000000
10.864673,0.011131,0.000000,0.000000,0.000000,0.000000,0.000000
10.874673,0.005970,0.000000,0.000000,0.000000,0.000000,0.000000
10.884673,0.005970,0.000000,0.000000,0.000000,0.000000,0.000000
10.894673,0.005970,0.000000,0.000000,0.000000,0.000000,0.000000
10.904673,0.005970,0.000000,0.000000,0.000000,0.000000,0.000000
10.914673,0.005970,0.000000,0.000000,0.000000,0.000000,0.000000
10.924673,0.005970,0.000000,0.000000,0.000000,0.000000,0.000000
10.934673,0.005970,0.000000,0.000000,0.000000,0.000000,0.000000
10.944673,0.005970,0.000000,0.000000,0.000000,0.000000,0.000000
10.954673,0.005970,0.000000,0.000000,0.000000,0.000000,0.000000
10.964673,0.005970,0.000000,0.000000,0.000000,0.000000,0.000000
10.974673,0.005970,0.000000,0.000000,0.000000,0.000000,0.000000
10.984673,0.005970,0.000000,0.000000,0.000000,0.000000,0.000000
10.994673,0.005970,0.000000,0.000000,0.000000,0.000000,0.000000
11.004673,0.000903,0.000000,0.000000,0.000000,0.000000,0.000000
11.014673,0.000903,0.000000,0.000000,0.000000,0.000000,0.000000
11.024673,0.000903,0.000000,0.000000,0.000000,0.000000,0.000000
11.034673,0.000903,0.000000,0.000000,0.000000,0.000000,0.000000
11.044673,0.000903,0.000000,0.000000,0.000000,0.000000,0.000000
11.054673,0.000903,0.000000,0.000000,0.000000,0.000000,0.000000
11.064673,0.000903,0.000000,0.000000,0.000000,0.000000,0.000000
11.074673,0.000903,0.000000,0.000000,0.000000,0.000000,0.000000
11.084673,0.000903,0.000000,0.000000,0.000000,0.000000,0.000000
11.094673,0.000903,0.000000,0.000000,0.000000,0.000000,0.000000
11.104673,0.000903,0.000000,0.000000,0.000000,0.000000,0.000000
11.114673,0.000903,0.000000,0.000000,0.000000,0.000000,0.000000
11.124673,0.000903,0.000000,0.000000,0.000000,0.000000,0.000000
11.134673,0.000903,0.000000,0.000000,0.000000,0.000000,0.000000
11.144673,0.000903,0.000000,0.000000,0.000000,0.000000,0.000000
11.154673,-0.003260,0.000000,0.000000,0.000000,0.000000,0.000000
11.164673,-0.003260,0.000000,0.000000,0.000000,0.000000,0.000000
11.174673,-0.003260,0.000000,0.000000,0.000000,0.000000,0.000000
11.184673,-0.003260,0.000000,0.000000,0.000000,0.000000,0.000000
11.194673,-0.003260,0.000000,0.000000,0.000000,0.000000,0.000000
11.204673,-0.003260,0.000000,0.000000,0.000000,0.000000,0.000000
11.214673,-0.003260,0.000000,0.000000,0.000000,0.000000,0.000000
11.224673,-0.003260,0.000000,0.000000,0.000000,0.000000,0.000000
11.234673,-0.003260,0.000000,0.000000,0.000000,0.000000,0.000000
11.244673,-0.003260,0.000000,0.000000,0.000000,0.000000,0.000000
11.254673,-0.003260,0.000000,0.000000,0.000000,0.000000,0.000000
11.264673,-0.003260,0.000000,0.000000,0.000000,0.000000,0.000000
11.274673,-0.003260,0.000000,0.000000,0.000000,0.000000,0.000000
11.284673,-0.003260,0.000000,0.000000,0.000000,0.000000,0.000000
11.294673,-0.003260,0.000000,0.000000,0.000000,0.000000,0.000000
11.304673,-0.006173,0.000000,0.000000,0.000000,0.000000,0.000000
11.314673,-0.006173,0.000000,0.000000,0.000000,0.000000,0.000000
11.324673,-0.006173,0.000000,0.000000,0.000000,0.000000,0.000000
11.334673,-0.006173,0.000000,0.000000,0.000000,0.000000,0.000000
11.344673,-0.006173,0.000000,0.000000,0.000000,0.000000,0.000000
11.354673,-0.006173,0.000000,0.000000,0.000000,0.000000,0.000000
11.364673,-0.006173,0.000000,0.000000,0.000000,0.000000,0.000000
11.374673,-0.006173,0.000000,0.000000,0.000000,0.000000,0.000000
11.384673,-0.006173,0.000000,0.000000,0.000000,0.000000,0.000000
11.394673,-0.006173,0.000000,0.000000,0.000000,0.000000,0.000000
11.404673,-0.006173,0.000000,0.000000,0.000000,0.000000,0.000000
11.414673,-0.006173,0.000000,0.000000,0.000000,0.000000,0.000000
11.424673,-0.006173,0.000000,0.000000,0.000000,0.000000,0.000000
11.434673,-0.008456,0.000000,0.000000,0.000000,0.000000,0.000000
11.444673,-0.008456,0.000000,0.000000,0.000000,0.000000,0.000000
11.454673,-0.008456,0.000000,0.000000,0.000000,0.000000,0.000000
11.464673,-0.008456,0.000000,0.000000,0.000000,0.000000,0.000000
11.474673,-0.008456,0.000000,0.000000,0.000000,0.000000,0.000000
11.484673,-0.008456,0.000000,0.000000,0.000000,0.000000,0.000000
11.494673,-0.008456,0.000000,0.000000,0.000000,0.000000,0.000000
11.504673,-0.008456,0.000000,0.000000,0.000000,0.000000,0.000000
11.514673,-0.008456,0.000000,0.000000,0.000000,0.000000,0.000000
11.524673,-0.008456,0.000000,0.000000,0.000000,0.000000,0.000000
11.534673,-0.008456,0.000000,0.000000,0.000000,0.000000,0.000000
11.544673,-0.008456,0.000000,0.000000,0.000000,0.000000,0.000000
11.554673,-0.008456,0.000000,0.000000,0.000000,0.000000,0.000000
11.564673,-0.010299,0.000000,0.000000,0.000000,0.000000,0.000000
11.574673,-0.010299,0.000000,0.000000,0.000000,0.000000,0.000000
11.584673,-0.010299,0.000000,0.000000,0.000000,0.000000,0.000000
11.594673,-0.010299,0.000000,0.000000,0.000000,0.000000,0.000000
11.604673,-0.010299,0.000000,0.000000,0.000000,0.000000,0.000000
11.614673,-0.010299,0.000000,0.000000,0.000000,0.000000,0.000000
11.624673,-0.010299,0.000000,0.000000,0.000000,0.000000,0.000000
11.634673,-0.010299,0.000000,0.000000,0.000000,0.000000,0.000000
11.644673,-0.010299,0.000000,0.000000,0.000000,0.000000,0.000000
11.654673,-0.010299,0.000000,0.000000,0.000000,0.000000,0.000000
11.664673,-0.010299,0.000000,0.000000,0.000000,0.000000,0.000000
11.674673,-0.010299,0.000000,0.000000,0.000000,0.000000,0.000000
11.684673,-0.010299,0.000000,0.000000,0.000000,0.000000,0.000000
11.694673,-0.010299,0.000000,0.000000,0.000000,0.000000,0.000000
11.704673,-0.010299,0.000000,0.000000,0.000000,0.000000,0.000000
11.714673,-0.011285,0.000000,0.000000,0.000000,0.000000,0.000000
11.724673,-0.011285,0.000000,0.000000,0.000000,0.000000,0.000000
11.734673,-0.011285,0.000000,0.000000,0.000000,0.000000,0.000000
11.744673,-0.011285,0.000000,0.000000,0.000000,0.000000,0.000000
11.754673,-0.011285,0.000000,0.000000,0.000000,0.000000,0.000000
11.764673,-0.011285,0.000000,0.000000,0.000000,0.000000,0.000000
11.774673,-0.011285,0.000000,0.000000,0.000000,0.000000,0.000000
11.784673,-0.011285,0.000000,0.000000,0.000000,0.000000,0.000000
11.794673,-0.011285,0.000000,0.000000,0.000000,0.000000,0.000000
11.804673,-0.011285,0.000000,0.000000,0.000000,0.000000,0.000000
11.814673,-0.011285,0.000000,0.000000,0.000000,0.000000,0.000000
11.824673,-0.011285,0.000000,0.000000,0.000000,0.000000,0.000000
11.834673,-0.011285,0.000000,0.000000,0.000000,0.000000,0.000000
11.844673,-0.011285,0.000000,0.000000,0.000000,0.000000,0.000000
11.854673,-0.011285,0.000000,0.000000,0.000000,0.000000,0.000000
11.864673,-0.011285,0.000000,0.000000,0.000000,0.000000,0.000000
11.874673,-0.011282,0.000000,0.000000,0.000000,0.000000,0.000000
11.884673,-0.011282,0.000000,0.000000,0.000000,0.000000,0.000000
11.894673,-0.011282,0.000000,0.000000,0.000000,0.000000,0.000000
11.904673,-0.011282,0.000000,0.000000,0.000000,0.000000,0.000000
11.914673,-0.011282,0.000000,0.000000,0.000000,0.000000,0.000000
11.924673,-0.011282,0.000000,0.000000,0.000000,0.000000,0.000000
11.934673,-0.011282,0.000000,0.000000,0.000000,0.000000,0.000000
11.944673,-0.011282,0.000000,0.000000,0.000000,0.000000,0.000000
11.954673,-0.011282,0.000000,0.000000,0.000000,0.000000,0.000000
11.964673,-0.011282,0.000000,0.000000,0.000000,0.000000,0.000000
11.974673,-0.011282,0.000000,0.000000,0.000000,0.000000,0.000000
11.984673,-0.011282,0.000000,0.000000,0.000000,0.000000,0.000000
11.994673,-0.011282,0.000000,0.000000,0.000000,0.000000,0.000000
12.004673,-0.010596,0.000000,0.000000,0.000000,0.000000,0.000000
12.014673,-0.010596,0.000000,0.000000,0.000000,0.000000,0.000000
12.024673,-0.010596,0.000000,0.000000,0.000000,0.000000,0.000000
12.034673,-0.010596,0.000000,0.000000,0.000000,0.000000,0.000000
12.044673,-0.010596,0.000000,0.000000,0.000000,0.000000,0.000000
12.054673,-0.010596,0.000000,0.000000,0.000000,0.000000,0.000000
12.064673,-0.010596,0.000000,0.000000,0.000000,0.000000,0.000000
12.074673,-0.010596,0.000000,0.000000,0.000000,0.000000,0.000000
12.084673,-0.010596,0.000000,0.000000,0.000000,0.000000,0.000000
12.094673,-0.010596,0.000000,0.000000,0.000000,0.000000,0.000000
12.104673,-0.010596,0.000000,0.000000,0.000000,0.000000,0.000000
12.114673,-0.010596,0.000000,0.000000,0.000000,0.000000,0.000000
12.124673,-0.008304,0.000000,0.000000,0.000000,0.000000,0.000000
12.134673,-0.008304,0.000000,0.000000,0.000000,0.000000,0.000000
12.144673,-0.008304,0.000000,0.000000,0.000000,0.000000,0.000000
12.154673,-0.008304,0.000000,0.000000,0.000000,0.000000,0.000000
12.164673,-0.008304,0.000000,0.000000,0.000000,0.000000,0.000000
12.174673,-0.008304,0.000000,0.000000,0.000000,0.000000,0.000000
12.184673,-0.008304,0.000000,0.000000,0.000000,0.000000,0.000000
12.194673,-0.008304,0.000000,0.000000,0.000000,0.000000,0.000000
12.204673,-0.008304,0.000000,0.000000,0.000000,0.000000,0.000000
12.214673,-0.008304,0.000000,0.000000,0.000000,0.000000,0.000000
12.224673,-0.008304,0.000000,0.000000,0.000000,0.000000,0.000000
12.234673,-0.008304,0.000000,0.000000,0.000000,0.000000,0.000000
12.244673,-0.008304,0.000000,0.000000,0.000000,0.000000,0.000000
12.254673,-0.008304,0.000000,0.000000,0.000000,0.000000,0.000000
12.264673,-0.008304,0.000000,0.000000,0.000000,0.000000,0.000000
12.274673,-0.008304,0.000000,0.000000,0.000000,0.000000,0.000000
12.284673,-0.008304,0.000000,0.000000,0.000000,0.000000,0.000000
12.294673,-0.008304,0.000000,0.000000,0.000000,0.000000,0.000000
12.304673,-0.006410,0.000000,0.000000,0.000000,0.000000,0.000000
12.314673,-0.006410,0.000000,0.000000,0.000000,0.000000,0.000000
12.324673,-0.006410,0.000000,0.000000,0.000000,0.000000,0.000000
12.334673,-0.006410,0.000000,0.000000,0.000000,0.000000,0.000000
12.344673,-0.006410,0.000000,0.000000,0.000000,0.000000,0.000000
12.354673,-0.006410,0.000000,0.000000,0.000000,0.000000,0.000000
12.364673,-0.006410,0.000000,0.000000,0.000000,0.000000,0.000000
12.374673,-0.006410,0.000000,0.000000,0.000000,0.000000,0.000000
12.384673,-0.006410,0.000000,0.000000,0.000000,0.000000,0.000000
12.394673,-0.006410,0.000000,0.000000,0.000000,0.000000,0.000000
12.404673,-0.002673,0.000000,0.000000,0.000000,0.000000,0.000000
12.414673,-0.002673,0.000000,0.000000,0.000000,0.000000,0.000000
12.424673,-0.002673,0.000000,0.000000,0.000000,0.000000,0.000000
12.434673,-0.002673,0.000000,0.000000,0.000000,0.000000,0.000000
12.444673,-0.002673,0.000000,0.000000,0.000000,0.000000,0.000000
12.454673,-0.002673,0.000000,0.000000,0.000000,0.000000,0.000000
12.464673,-0.002673,0.000000,0.000000,0.000000,0.000000,0.000000
12.474673,-0.002673,0.000000,0.000000,0.000000,0.000000,0.000000
12.484673,-0.002673,0.000000,0.000000,0.000000,0.000000,0.000000
12.494673,-0.002673,0.000000,0.000000,0.000000,0.000000,0.000000
12.504673,-0.002673,0.000000,0.000000,0.000000,0.000000,0.000000
12.514673,-0.002673,0.000000,0.000000,0.000000,0.000000,0.000000
12.524673,-0.002673,0.000000,0.000000,0.000000,0.000000,0.000000
12.534673,-0.002673,0.000000,0.000000,0.000000,0.000000,0.000000
12.544673,-0.002673,0.000000,0.000000,0.000000,0.000000,0.000000
12.554673,-0.002673,0.000000,0.000000,0.000000,0.000000,0.000000
12.564673,0.001115,0.000000,0.000000,0.000000,0.000000,0.000000
12.574673,0.001115,0.000000,0.000000,0.000000,0.000000,0.000000
12.584673,0.001115,0.000000,0.000000,0.000000,0.000000,0.000000
12.594673,0.001115,0.000000,0.000000,0.000000,0.000000,0.000000
12.604673,0.001115,0.000000,0.000000,0.000000,0.000000,0.000000
12.614673,0.001115,0.000000,0.000000,0.000000,0.000000,0.000000
12.624673,0.001115,0.000000,0.000000,0.000000,0.000000,0.000000
12.634673,0.001115,0.000000,0.000000,0.000000,0.000000,0.000000
12.644673,0.001115,0.000000,0.000000,0.000000,0.000000,0.000000
12.654673,0.001115,0.000000,0.000000,0.000000,0.000000,0.000000
12.664673,0.001115,0.000000,0.000000,0.000000,0.000000,0.000000
12.674673,0.001115,0.000000,0.000000,0.000000,0.000000,0.000000
12.684673,0.001115,0.000000,0.000000,0.000000,0.000000,0.000000
12.694673,0.001115,0.000000,0.000000,0.000000,0.000000,0.000000
12.704673,0.001115,0.000000,0.000000,0.000000,0.000000,0.000000
12.714673,0.004202,0.000000,0.000000,0.000000,0.000000,0.000000
12.724673,0.004202,0.000000,0.000000,0.000000,0.000000,0.000000
12.734673,0.004202,0.000000,0.000000,0.000000,0.000000,0.000000
12.744673,0.004202,0.000000,0.000000,0.000000,0.000000,0.000000
12.754673,0.004202,0.000000,0.000000,0.000000,0.000000,0.000000
12.764673,0.004202,0.000000,0.000000,0.000000,0.000000,0.000000
12.774673,0.004202,0.000000,0.000000,0.000000,0.000000,0.000000
12.784673,0.004202,0.000000,0.000000,0.000000,0.000000,0.000000
12.794673,0.004202,0.000000,0.000000,0.000000,0.000000,0.000000
12.804673,0.004202,0.000000,0.000000,0.000000,0.000000,0.000000
12.814673,0.004202,0.000000,0.000000,0.000000,0.000000,0.000000
12.824673,0.004202,0.000000,0.000000,0.000000,0.000000,0.000000
12.834673,0.004202,0.000000,0.000000,0.000000,0.000000,0.000000
12.844673,0.004202,0.000000,0.000000,0.000000,0.000000,0.000000
12.854673,0.004202,0.000000,0.000000,0.000000,0.000000,0.000000
12.864673,0.004996,0.000000,0.000000,0.000000,0.000000,0.000000
12.874673,0.004996,0.000000,0.000000,0.000000,0.000000,0.000000
12.884673,0.004996,0.000000,0.000000,0.000000,0.000000,0.000000
12.894673,0.004996,0.000000,0.000000,0.000000,0.000000,0.000000
12.904673,0.004996,0.000000,0.000000,0.000000,0.000000,0.000000
12.914673,0.004996,0.000000,0.000000,0.000000,0.000000,0.000000
12.924673,0.004996,0.000000,0.000000,0.000000,0.000000,0.000000
12.934673,0.004996,0.000000,0.000000,0.000000,0.000000,0.000000
12.944673,0.004996,0.000000,0.000000,0.000000,0.000000,0.000000
12.954673,0.004996,0.000000,0.000000,0.000000,0.000000,0.000000
12.964673,0.004996,0.000000,0.000000,0.000000,0.000000,0.000000
12.974673,0.004996,0.000000,0.000000,0.000000,0.000000,0.000000
12.984673,0.004996,0.000000,0.000000,0.000000,0.000000,0.000000
12.994673,0.004996,0.000000,0.000000,0.000000,0.000000,0.000000
13.004673,0.004996,0.000000,0.000000,0.000000,0.000000,0.000000
13.014673,0.001058,0.000000,0.000000,0.000000,0.000000,0.000000
13.024673,0.001058,0.000000,0.000000,0.000000,0.000000,0.000000
13.034673,0.001058,0.000000,0.000000,0.000000,0.000000,0.000000
13.044673,0.001058,0.000000,0.000000,0.000000,0.000000,0.000000
13.054673,0.001058,0.000000,0.000000,0.000000,0.000000,0.000000
13.064673,0.001058,0.000000,0.000000,0.000000,0.000000,0.000000
13.074673,0.001058,0.000000,0.000000,0.000000,0.000000,0.000000
13.084673,0.001058,0.000000,0.000000,0.000000,0.000000,0.000000
13.094673,0.001058,0.000000,0.000000,0.000000,0.000000,0.000000
13.104673,0.001058,0.000000,0.000000,0.000000,0.000000,0.000000
13.114673,0.001058,0.000000,0.000000,0.000000,0.000000,0.000000
13.124673,0.001058,0.000000,0.000000,0.000000,0.000000,0.000000
13.134673,0.001058,0.000000,0.000000,0.000000,0.000000,0.000000
13.144673,0.001058,0.000000,0.000000,0.000000,0.000000,0.000000
13.154673,0.001058,0.000000,0.000000,0.000000,0.000000,0.000000
13.164673,-0.001301,0.000000,0.000000,0.000000,0.000000,0.000000
13.174673,-0.001301,0.000000,0.000000,0.000000,0.000000,0.000000
13.184673,-0.001301,0.000000,0.000000,0.000000,0.000000,0.000000
13.194673,-0.001301,0.000000,0.000000,0.000000,0.000000,0.000000
13.204673,-0.001301,0.000000,0.000000,0.000000,0.000000,0.000000
13.214673,-0.001301,0.000000,0.000000,0.000000,0.000000,0.000000
13.224673,-0.001301,0.000000,0.000000,0.000000,0.000000,0.000000
13.234673,-0.001301,0.000000,0.000000,0.000000,0.000000,0.000000
13.244673,-0.001301,0.000000,0.000000,0.000000,0.000000,0.000000
13.254673,-0.001301,0.000000,0.000000,0.000000,0.000000,0.000000
13.264673,-0.001301,0.000000,0.000000,0.000000,0.000000,0.000000
13.274673,-0.001301,0.000000,0.000000,0.000000,0.000000,0.000000
13.284673,-0.001301,0.000000,0.000000,0.000000,0.000000,0.000000
13.294673,0.002856,0.000000,0.000000,0.000000,0.000000,0.000000
13.304673,0.002856,0.000000,0.000000,0.000000,0.000000,0.000000
13.314673,0.002856,0.000000,0.000000,0.000000,0.000000,0.000000
13.324673,0.002856,0.000000,0.000000,0.000000,0.000000,0.000000
13.334673,0.002856,0.000000,0.000000,0.000000,0.000000,0.000000
13.344673,0.002856,0.000000,0.000000,0.000000,0.000000,0.000000
13.354673,0.002856,0.000000,0.000000,0.000000,0.000000,0.000000
13.364673,0.002856,0.000000,0.000000,0.000000,0.000000,0.000000
13.374673,0.002856,0.000000,0.000000,0.000000,0.000000,0.000000
13.384673,0.002856,0.000000,0.000000,0.000000,0.000000,0.000000
13.394673,0.002856,0.000000,0.000000,0.000000,0.000000,0.000000
13.404673,0.002856,0.000000,0.000000,0.000000,0.000000,0.000000
13.414673,0.002856,0.000000,0.000000,0.000000,0.000000,0.000000
13.424673,0.002856,0.000000,0.000000,0.000000,0.000000,0.000000
13.434673,0.010577,0.000000,0.000000,0.000000,0.000000,0.000000
13.444673,0.010577,0.000000,0.000000,0.000000,0.000000,0.000000
13.454673,0.010577,0.000000,0.000000,0.000000,0.000000,0.000000
13.464673,0.010577,0.000000,0.000000,0.000000,0.000000,0.000000
13.474673,0.010577,0.000000,0.000000,0.000000,0.000000,0.000000
13.484673,0.010577,0.000000,0.000000,0.000000,0.000000,0.000000
13.494673,0.010577,0.000000,0.000000,0.000000,0.000000,0.000000
13.504673,0.010577,0.000000,0.000000,0.000000,0.000000,0.000000
13.514673,0.010577,0.000000,0.000000,0.000000,0.000000,0.000000
13.524673,0.010577,0.000000,0.000000,0.000000,0.000000,0.000000
13.534673,0.010577,0.000000,0.000000,0.000000,0.000000,0.000000
13.544673,0.010577,0.000000,0.000000,0.000000,0.000000,0.000000
13.554673,0.010577,0.000000,0.000000,0.000000,0.000000,0.000000
13.564673,0.021220,0.000000,0.000000,0.000000,0.000000,0.000000
13.574673,0.021220,0.000000,0.000000,0.000000,0.000000,0.000000
13.584673,0.021220,0.000000,0.000000,0.000000,0.000000,0.000000
13.594673,0.021220,0.000000,0.000000,0.000000,0.000000,0.000000
13.604673,0.021220,0.000000,0.000000,0.000000,0.000000,0.000000
13.614673,0.021220,0.000000,0.000000,0.000000,0.000000,0.000000
13.624673,0.021220,0.000000,0.000000,0.000000,0.000000,0.000000
13.634673,0.021220,0.000000,0.000000,0.000000,0.000000,0.000000
13.644673,0.021220,0.000000,0.000000,0.000000,0.000000,0.000000
13.654673,0.021220,0.000000,0.000000,0.000000,0.000000,0.000000
13.664673,0.021220,0.000000,0.000000,0.000000,0.000000,0.000000
13.674673,0.021220,0.000000,0.000000,0.000000,0.000000,0.000000
13.684673,0.021220,0.000000,0.000000,0.000000,0.000000,0.000000
13.694673,0.021220,0.000000,0.000000,0.000000,0.000000,0.000000
13.704673,0.035309,0.000000,0.000000,0.000000,0.000000,0.000000
13.714673,0.035309,0.000000,0.000000,0.000000,0.000000,0.000000
13.724673,0.035309,0.000000,0.000000,0.000000,0.000000,0.000000
13.734673,0.035309,0.000000,0.000000,0.000000,0.000000,0.000000
13.744673,0.035309,0.000000,0.000000,0.000000,0.000000,0.000000
13.754673,0.035309,0.000000,0.000000,0.000000,0.000000,0.000000
13.764673,0.035309,0.000000,0.000000,0.000000,0.000000,0.000000
13.774673,0.035309,0.000000,0.000000,0.000000,0.000000,0.000000
13.784673,0.035309,0.000000,0.000000,0.000000,0.000000,0.000000
13.794673,0.035309,0.000000,0.000000,0.000000,0.000000,0.000000
13.804673,0.035309,0.000000,0.000000,0.000000,0.000000,0.000000
13.814673,0.035309,0.000000,0.000000,0.000000,0.000000,0.000000
13.824673,0.035309,0.000000,0.000000,0.000000,0.000000,0.000000
13.834673,0.035309,0.000000,0.000000,0.000000,0.000000,0.000000
13.844673,0.035309,0.000000,0.000000,0.000000,0.000000,0.000000
13.854673,0.035309,0.000000,0.000000,0.000000,0.000000,0.000000
13.864673,0.035309,0.000000,0.000000,0.000000,0.000000,0.000000
13.874673,0.045026,0.000000,0.000000,0.000000,0.000000,0.000000
13.884673,0.045026,0.000000,0.000000,0.000000,0.000000,0.000000
13.894673,0.045026,0.000000,0.000000,0.000000,0.000000,0.000000
13.904673,0.045026,0.000000,0.000000,0.000000,0.000000,0.000000
13.914673,0.045026,0.000000,0.000000,0.000000,0.000000,0.000000
13.924673,0.045026,0.000000,0.000000,0.000000,0.000000,0.000000
13.934673,0.045026,0.000000,0.000000,0.000000,0.000000,0.000000
13.944673,0.045026,0.000000,0.000000,0.000000,0.000000,0.000000
13.954673,0.045026,0.000000,0.000000,0.000000,0.000000,0.000000
13.964673,0.045026,0.000000,0.000000,0.000000,0.000000,0.000000
13.974673,0.045026,0.000000,0.000000,0.000000,0.000000,0.000000
13.984673,0.045026,0.000000,0.000000,0.000000,0.000000,0.000000
13.994673,0.055388,0.000000,0.000000,0.000000,0.000000,0.000000
14.004673,0.055388,0.000000,0.000000,0.000000,0.000000,0.000000
14.014673,0.055388,0.000000,0.000000,0.000000,0.000000,0.000000
14.024673,0.055388,0.000000,0.000000,0.000000,0.000000,0.000000
14.034673,0.055388,0.000000,0.000000,0.000000,0.000000,0.000000
14.044673,0.055388,0.000000,0.000000,0.000000,0.000000,0.000000
14.054673,0.055388,0.000000,0.000000,0.000000,0.000000,0.000000
14.064673,0.055388,0.000000,0.000000,0.000000,0.000000,0.000000
14.074673,0.055388,0.000000,0.000000,0.000000,0.000000,0.000000
14.084673,0.055388,0.000000,0.000000,0.000000,0.000000,0.000000
14.094673,0.055388,0.000000,0.000000,0.000000,0.000000,0.000000
14.104673,0.055388,0.000000,0.000000,0.000000,0.000000,0.000000
14.114673,0.055388,0.000000,0.000000,0.000000,0.000000,0.000000
14.124673,0.055388,0.000000,0.000000,0.000000,0.000000,0.000000
14.134673,0.064778,0.000000,0.000000,0.000000,0.000000,0.000000
14.144673,0.064778,0.000000,0.000000,0.000000,0.000000,0.000000
14.154673,0.064778,0.000000,0.000000,0.000000,0.000000,0.000000
14.164673,0.064778,0.000000,0.000000,0.000000,0.000000,0.000000
14.174673,0.064778,0.000000,0.000000,0.000000,0.000000,0.000000
14.184673,0.064778,0.000000,0.000000,0.000000,0.000000,0.000000
14.194673,0.064778,0.000000,0.000000,0.000000,0.000000,0.000000
14.204673,0.064778,0.000000,0.000000,0.000000,0.000000,0.000000
14.214673,0.064778,0.000000,0.000000,0.000000,0.000000,0.000000
14.224673,0.064778,0.000000,0.000000,0.000000,0.000000,0.000000
14.234673,0.064778,0.000000,0.000000,0.000000,0.000000,0.000000
14.244673,0.064778,0.000000,0.000000,0.000000,0.000000,0.000000
14.254673,0.064778,0.000000,0.000000,0.000000,0.000000,0.000000
14.264673,0.064778,0.000000,0.000000,0.000000,0.000000,0.000000
14.274673,0.064778,0.000000,0.000000,0.000000,0.000000,0.000000
14.284673,0.072837,0.000000,0.000000,0.000000,0.000000,0.000000
14.294673,0.072837,0.000000,0.000000,0.000000,0.000000,0.000000
14.304673,0.072837,0.000000,0.000000,0.000000,0.000000,0.000000
14.314673,0.072837,0.000000,0.000000,0.000000,0.000000,0.000000
14.324673,0.072837,0.000000,0.000000,0.000000,0.000000,0.000000
14.334673,0.072837,0.000000,0.000000,0.000000,0.000000,0.000000
14.344673,0.072837,0.000000,0.000000,0.000000,0.000000,0.000000
14.354673,0.072837,0.000000,0.000000,0.000000,0.000000,0.000000
14.364673,0.072837,0.000000,0.000000,0.000000,0.000000,0.000000
14.374673,0.072837,0.000000,0.000000,0.000000,0.000000,0.000000
14.384673,0.072837,0.000000,0.000000,0.000000,0.000000,0.000000
14.394673,0.072837,0.000000,0.000000,0.000000,0.000000,0.000000
14.404673,0.072837,0.000000,0.000000,0.000000,0.000000,0.000000
14.414673,0.072837,0.000000,0.000000,0.000000,0.000000,0.000000
14.424673,0.072837,0.000000,0.000000,0.000000,0.000000,0.000000
14.434673,0.072837,0.000000,0.000000,0.000000,0.000000,0.000000
14.444673,0.072837,0.000000,0.000000,0.000000,0.000000,0.000000
14.454673,0.077268,0.000000,0.000000,0.000000,0.000000,0.000000
14.464673,0.077268,0.000000,0.000000,0.000000,0.000000,0.000000
14.474673,0.077268,0.000000,0.000000,0.000000,0.000000,0.000000
14.484673,0.077268,0.000000,0.000000,0.000000,0.000000,0.000000
14.494673,0.077268,0.000000,0.000000,0.000000,0.000000,0.000000
14.504673,0.077268,0.000000,0.000000,0.000000,0.000000,0.000000
14.514673,0.077268,0.000000,0.000000,0.000000,0.000000,0.000000
14.524673,0.077268,0.000000,0.000000,0.000000,0.000000,0.000000
14.534673,0.077268,0.000000,0.000000,0.000000,0.000000,0.000000
14.544673,0.077268,0.000000,0.000000,0.000000,0.000000,0.000000
14.554673,0.077268,0.000000,0.000000,0.000000,0.000000,0.000000
14.564673,0.077268,0.000000,0.000000,0.000000,0.000000,0.000000
14.574673,0.077268,0.000000,0.000000,0.000000,0.000000,0.000000
14.584673,0.077268,0.000000,0.000000,0.000000,0.000000,0.000000
14.594673,0.079912,0.000000,0.000000,0.000000,0.000000,0.000000
14.604673,0.079912,0.000000,0.000000,0.000000,0.000000,0.000000
14.614673,0.079912,0.000000,0.000000,0.000000,0.000000,0.000000
14.624673,0.079912,0.000000,0.000000,0.000000,0.000000,0.000000
14.634673,0.079912,0.000000,0.000000,0.000000,0.000000,0.000000
14.644673,0.079912,0.000000,0.000000,0.000000,0.000000,0.000000
14.654673,0.079912,0.000000,0.000000,0.000000,0.000000,0.000000
14.664673,0.079912,0.000000,0.000000,0.000000,0.000000,0.000000
14.674673,0.079912,0.000000,0.000000,0.000000,0.000000,0.000000
14.684673,0.079912,0.000000,0.000000,0.000000,0.000000,0.000000
14.694673,0.079912,0.000000,0.000000,0.000000,0.000000,0.000000
14.704673,0.079912,0.000000,0.000000,0.000000,0.000000,0.000000
14.714673,0.079912,0.000000,0.000000,0.000000,0.000000,0.000000
14.724673,0.079912,0.000000,0.000000,0.000000,0.000000,0.000000
14.734673,0.079912,0.000000,0.000000,0.000000,0.000000,0.000000
14.744673,0.079912,0.000000,0.000000,0.000000,0.000000,0.000000
14.754673,0.080264,0.000000,0.000000,0.000000,0.000000,0.000000
14.764673,0.080264,0.000000,0.000000,0.000000,0.000000,0.000000
14.774673,0.080264,0.000000,0.000000,0.000000,0.000000,0.000000
14.784673,0.080264,0.000000,0.000000,0.000000,0.000000,0.000000
14.794673,0.080264,0.000000,0.000000,0.000000,0.000000,0.000000
14.804673,0.080264,0.000000,0.000000,0.000000,0.000000,0.000000
14.814673,0.080264,0.000000,0.000000,0.000000,0.000000,0.000000
14.824673,0.080264,0.000000,0.000000,0.000000,0.000000,0.000000
14.834673,0.080264,0.000000,0.000000,0.000000,0.000000,0.000000
14.844673,0.080264,0.000000,0.000000,0.000000,0.000000,0.000000
14.854673,0.080264,0.000000,0.000000,0.000000,0.000000,0.000000
14.864673,0.080264,0.000000,0.000000,0.000000,0.000000,0.000000
14.874673,0.080264,0.000000,0.000000,0.000000,0.000000,0.000000
14.884673,0.079281,0.000000,0.000000,0.000000,0.000000,0.000000
14.894673,0.079281,0.000000,0.000000,0.000000,0.000000,0.000000
14.904673,0.079281,0.000000,0.000000,0.000000,0.000000,0.000000
14.914673,0.079281,0.000000,0.000000,0.000000,0.000000,0.000000
14.924673,0.079281,0.000000,0.000000,0.000000,0.000000,0.000000
14.934673,0.079281,0.000000,0.000000,0.000000,0.000000,0.000000
14.944673,0.079281,0.000000,0.000000,0.000000,0.000000,0.000000
14.954673,0.079281,0.000000,0.000000,0.000000,0.000000,0.000000
14.964673,0.079281,0.000000,0.000000,0.000000,0.000000,0.000000
14.974673,0.079281,0.000000,0.000000,0.000000,0.000000,0.000000
14.984673,0.079281,0.000000,0.000000,0.000000,0.000000,0.000000
14.994673,0.079281,0.000000,0.000000,0.000000,0.000000,0.000000
15.004673,0.076947,0.000000,0.000000,0.000000,0.000000,0.000000
15.014673,0.076947,0.000000,0.000000,0.000000,0.000000,0.000000
15.024673,0.076947,0.000000,0.000000,0.000000,0.000000,0.000000
15.034673,0.076947,0.000000,0.000000,0.000000,0.000000,0.000000
15.044673,0.076947,0.000000,0.000000,0.000000,0.000000,0.000000
15.054673,0.076947,0.000000,0.000000,0.000000,0.000000,0.000000
15.064673,0.076947,0.000000,0.000000,0.000000,0.000000,0.000000
15.074673,0.076947,0.000000,0.000000,0.000000,0.000000,0.000000
15.084673,0.076947,0.000000,0.000000,0.000000,0.000000,0.000000
15.094673,0.076947,0.000000,0.000000,0.000000,0.000000,0.000000
15.104673,0.076947,0.000000,0.000000,0.000000,0.000000,0.000000
15.114673,0.076947,0.000000,0.000000,0.000000,0.000000,0.000000
15.124673,0.076947,0.000000,0.000000,0.000000,0.000000,0.000000
15.134673,0.073458,0.000000,0.000000,0.000000,0.000000,0.000000
15.144673,0.073458,0.000000,0.000000,0.000000,0.000000,0.000000
15.154673,0.073458,0.000000,0.000000,0.000000,0.000000,0.000000
15.164673,0.073458,0.000000,0.000000,0.000000,0.000000,0.000000
15.174673,0.073458,0.000000,0.000000,0.000000,0.000000,0.000000
15.184673,0.073458,0.000000,0.000000,0.000000,0.000000,0.000000
15.194673,0.073458,0.000000,0.000000,0.000000,0.000000,0.000000
15.204673,0.073458,0.000000,0.000000,0.000000,0.000000,0.000000
15.214673,0.073458,0.000000,0.000000,0.000000,0.000000,0.000000
15.224673,0.073458,0.000000,0.000000,0.000000,0.000000,0.000000
15.234673,0.073458,0.000000,0.000000,0.000000,0.000000,0.000000
15.244673,0.073458,0.000000,0.000000,0.000000,0.000000,0.000000
15.254673,0.073458,0.000000,0.000000,0.000000,0.000000,0.000000
15.264673,0.068608,0.000000,0.000000,0.000000,0.000000,0.000000
15.274673,0.068608,0.000000,0.000000,0.000000,0.000000,0.000000
15.284673,0.068608,0.000000,0.000000,0.000000,0.000000,0.000000
15.294673,0.068608,0.000000,0.000000,0.000000,0.000000,0.000000
15.304673,0.068608,0.000000,0.000000,0.000000,0.000000,0.000000
15.314673,0.068608,0.000000,0.000000,0.000000,0.000000,0.000000
15.324673,0.068608,0.000000,0.000000,0.000000,0.000000,0.000000
15.334673,0.068608,0.000000,0.000000,0.000000,0.000000,0.000000
15.344673,0.068608,0.000000,0.000000,0.000000,0.000000,0.000000
15.354673,0.068608,0.000000,0.000000,0.000000,0.000000,0.000000
15.364673,0.068608,0.000000,0.000000,0.000000,0.000000,0.000000
15.374673,0.068608,0.000000,0.000000,0.000000,0.000000,0.000000
15.384673,0.068608,0.000000,0.000000,0.000000,0.000000,0.000000
15.394673,0.068608,0.000000,0.000000,0.000000,0.000000,0.000000
15.404673,0.062383,0.000000,0.000000,0.000000,0.000000,0.000000
15.414673,0.062383,0.000000,0.000000,0.000000,0.000000,0.000000
15.424673,0.062383,0.000000,0.000000,0.000000,0.000000,0.000000
15.434673,0.062383,0.000000,0.000000,0.000000,0.000000,0.000000
15.444673,0.062383,0.000000,0.000000,0.000000,0.000000,0.000000
15.454673,0.062383,0.000000,0.000000,0.000000,0.000000,0.000000
15.464673,0.062383,0.000000,0.000000,0.000000,0.000000,0.000000
15.474673,0.062383,0.000000,0.000000,0.000000,0.000000,0.000000
15.484673,0.062383,0.000000,0.000000,0.000000,0.000000,0.000000
15.494673,0.062383,0.000000,0.000000,0.000000,0.000000,0.000000
15.504673,0.062383,0.000000,0.000000,0.000000,0.000000,0.000000
15.514673,0.062383,0.000000,0.000000,0.000000,0.000000,0.000000
15.524673,0.062383,0.000000,0.000000,0.000000,0.000000,0.000000
15.534673,0.062383,0.000000,0.000000,0.000000,0.000000,0.000000
15.544673,0.062383,0.000000,0.000000,0.000000,0.000000,0.000000
15.554673,0.053832,0.000000,0.000000,0.000000,0.000000,0.000000
15.564673,0.053832,0.000000,0.000000,0.000000,0.000000,0.000000
15.574673,0.053832,0.000000,0.000000,0.000000,0.000000,0.000000
15.584673,0.053832,0.000000,0.000000,0.000000,0.000000,0.000000
15.594673,0.053832,0.000000,0.000000,0.000000,0.000000,0.000000
15.604673,0.053832,0.000000,0.000000,0.000000,0.000000,0.000000
15.614673,0.053832,0.000000,0.000000,0.000000,0.000000,0.000000
15.624673,0.053832,0.000000,0.000000,0.000000,0.000000,0.000000
15.634673,0.053832,0.000000,0.000000,0.000000,0.000000,0.000000
15.644673,0.053832,0.000000,0.000000,0.000000,0.000000,0.000000
15.654673,0.053832,0.000000,0.000000,0.000000,0.000000,0.000000
15.664673,0.053832,0.000000,0.000000,0.000000,0.000000,0.000000
15.674673,0.053832,0.000000,0.000000,0.000000,0.000000,0.000000
15.684673,0.053832,0.000000,0.000000,0.000000,0.000000,0.000000
15.694673,0.053832,0.000000,0.000000,0.000000,0.000000,0.000000
15.704673,0.053832,0.000000,0.000000,0.000000,0.000000,0.000000
15.714673,0.053832,0.000000,0.000000,0.000000,0.000000,0.000000
15.724673,0.053832,0.000000,0.000000,0.000000,0.000000,0.000000
15.734673,0.048168,0.000000,0.000000,0.000000,0.000000,0.000000
15.744673,0.048168,0.000000,0.000000,0.000000,0.000000,0.000000
15.754673,0.048168,0.000000,0.000000,0.000000,0.000000,0.000000
15.764673,0.048168,0.000000,0.000000,0.000000,0.000000,0.000000
15.774673,0.048168,0.000000,0.000000,0.000000,0.000000,0.000000
15.784673,0.048168,0.000000,0.000000,0.000000,0.000000,0.000000
15.794673,0.048168,0.000000,0.000000,0.000000,0.000000,0.000000
15.804673,0.048168,0.000000,0.000000,0.000000,0.000000,0.000000
15.814673,0.048168,0.000000,0.000000,0.000000,0.000000,0.000000
15.824673,0.048168,0.000000,0.000000,0.000000,0.000000,0.000000
15.834673,0.048168,0.000000,0.000000,0.000000,0.000000,0.000000
15.844673,0.039500,0.000000,0.000000,0.000000,0.000000,0.000000
15.854673,0.039500,0.000000,0.000000,0.000000,0.000000,0.000000
15.864673,0.039500,0.000000,0.000000,0.000000,0.000000,0.000000
15.874673,0.039500,0.000000,0.000000,0.000000,0.000000,0.000000
15.884673,0.039500,0.000000,0.000000,0.000000,0.000000,0.000000
15.894673,0.039500,0.000000,0.000000,0.000000,0.000000,0.000000
15.904673,0.039500,0.000000,0.000000,0.000000,0.000000,0.000000
15.914673,0.039500,0.000000,0.000000,0.000000,0.000000,0.000000
15.924673,0.039500,0.000000,0.000000,0.000000,0.000000,0.000000
15.934673,0.039500,0.000000,0.000000,0.000000,0.000000,0.000000
15.944673,0.039500,0.000000,0.000000,0.000000,0.000000,0.000000
15.954673,0.039500,0.000000,0.000000,0.000000,0.000000,0.000000
15.964673,0.039500,0.000000,0.000000,0.000000,0.000000,0.000000
15.974673,0.039500,0.000000,0.000000,0.000000,0.000000,0.000000
15.984673,0.039500,0.000000,0.000000,0.000000,0.000000,0.000000
15.994673,0.030473,0.000000,0.000000,0.000000,0.000000,0.000000
16.004673,0.030473,0.000000,0.000000,0.000000,0.000000,0.000000
16.014673,0.030473,0.000000,0.000000,0.000000,0.000000,0.000000
16.024673,0.030473,0.000000,0.000000,0.000000,0.000000,0.000000
16.034673,0.030473,0.000000,0.000000,0.000000,0.000000,0.000000
16.044673,0.030473,0.000000,0.000000,0.000000,0.000000,0.000000
16.054673,0.030473,0.000000,0.000000,0.000000,0.000000,0.000000
16.064673,0.030473,0.000000,0.000000,0.000000,0.000000,0.000000
16.074673,0.030473,0.000000,0.000000,0.000000,0.000000,0.000000
16.084673,0.030473,0.000000,0.000000,0.000000,0.000000,0.000000
16.094673,0.030473,0.000000,0.000000,0.000000,0.000000,0.000000
16.104673,0.030473,0.000000,0.000000,0.000000,0.000000,0.000000
16.114673,0.030473,0.000000,0.000000,0.000000,0.000000,0.000000
16.124673,0.030473,0.000000,0.000000,0.000000,0.000000,0.000000
16.134673,0.030473,0.000000,0.000000,0.000000,0.000000,0.000000
16.144673,0.030473,0.000000,0.000000,0.000000,0.000000,0.000000
16.154673,0.030473,0.000000,0.000000,0.000000,0.000000,0.000000
16.164673,0.022383,0.000000,0.000000,0.000000,0.000000,0.000000
16.174673,0.022383,0.000000,0.000000,0.000000,0.000000,0.000000
16.184673,0.022383,0.000000,0.000000,0.000000,0.000000,0.000000
16.194673,0.022383,0.000000,0.000000,0.000000,0.000000,0.000000
16.204673,0.022383,0.000000,0.000000,0.000000,0.000000,0.000000
16.214673,0.022383,0.000000,0.000000,0.000000,0.000000,0.000000
16.224673,0.022383,0.000000,0.000000,0.000000,0.000000,0.000000
16.234673,0.022383,0.000000,0.000000,0.000000,0.000000,0.000000
16.244673,0.022383,0.000000,0.000000,0.000000,0.000000,0.000000
16.254673,0.022383,0.000000,0.000000,0.000000,0.000000,0.000000
16.264673,0.022383,0.000000,0.000000,0.000000,0.000000,0.000000
16.274673,0.022383,0.000000,0.000000,0.000000,0.000000,0.000000
16.284673,0.022383,0.000000,0.000000,0.000000,0.000000,0.000000
16.294673,0.022383,0.000000,0.000000,0.000000,0.000000,0.000000
16.304673,0.014182,0.000000,0.000000,0.000000,0.000000,0.000000
16.314673,0.014182,0.000000,0.000000,0.000000,0.000000,0.000000
16.324673,0.014182,0.000000,0.000000,0.000000,0.000000,0.000000
16.334673,0.014182,0.000000,0.000000,0.000000,0.000000,0.000000
16.344673,0.014182,0.000000,0.000000,0.000000,0.000000,0.000000
16.354673,0.014182,0.000000,0.000000,0.000000,0.000000,0.000000
16.364673,0.014182,0.000000,0.000000,0.000000,0.000000,0.000000
16.374673,0.014182,0.000000,0.000000,0.000000,0.000000,0.000000
16.384673,0.014182,0.000000,0.000000,0.000000,0.000000,0.000000
16.394673,0.014182,0.000000,0.000000,0.000000,0.000000,0.000000
16.404673,0.014182,0.000000,0.000000,0.000000,0.000000,0.000000
16.414673,0.014182,0.000000,0.000000,0.000000,0.000000,0.000000
16.424673,0.014182,0.000000,0.000000,0.000000,0.000000,0.000000
16.434673,0.014182,0.000000,0.000000,0.000000,0.000000,0.000000
16.444673,0.006511,0.000000,0.000000,0.000000,0.000000,0.000000
16.454673,0.006511,0.000000,0.000000,0.000000,0.000000,0.000000
16.464673,0.006511,0.000000,0.000000,0.000000,0.000000,0.000000
16.474673,0.006511,0.000000,0.000000,0.000000,0.000000,0.000000
16.484673,0.006511,0.000000,0.000000,0.000000,0.000000,0.000000
16.494673,0.006511,0.000000,0.000000,0.000000,0.000000,0.000000
16.504673,0.006511,0.000000,0.000000,0.000000,0.000000,0.000000
16.514673,0.006511,0.000000,0.000000,0.000000,0.000000,0.000000
16.524673,0.006511,0.000000,0.000000,0.000000,0.000000,0.000000
16.534673,0.006511,0.000000,0.000000,0.000000,0.000000,0.000000
16.544673,0.006511,0.000000,0.000000,0.000000,0.000000,0.000000
16.554673,0.006511,0.000000,0.000000,0.000000,0.000000,0.000000
16.564673,0.006511,0.000000,0.000000,0.000000,0.000000,0.000000
16.574673,-0.001184,0.000000,0.000000,0.000000,0.000000,0.000000
16.584673,-0.001184,0.000000,0.000000,0.000000,0.000000,0.000000
16.594673,-0.001184,0.000000,0.000000,0.000000,0.000000,0.000000
16.604673,-0.001184,0.000000,0.000000,0.000000,0.000000,0.000000
16.614673,-0.001184,0.000000,0.000000,0.000000,0.000000,0.000000
16.624673,-0.001184,0.000000,0.000000,0.000000,0.000000,0.000000
16.634673,-0.001184,0.000000,0.000000,0.000000,0.000000,0.000000
16.644673,-0.001184,0.000000,0.000000,0.000000,0.000000,0.000000
16.654673,-0.001184,0.000000,0.000000,0.000000,0.000000,0.000000
16.664673,-0.001184,0.000000,0.000000,0.000000,0.000000,0.000000
16.674673,-0.001184,0.000000,0.000000,0.000000,0.000000,0.000000
16.684673,-0.001184,0.000000,0.000000,0.000000,0.000000,0.000000
16.694673,-0.001184,0.000000,0.000000,0.000000,0.000000,0.000000
16.704673,-0.011236,0.000000,0.000000,0.000000,0.000000,0.000000
16.714673,-0.011236,0.000000,0.000000,0.000000,0.000000,0.000000
16.724673,-0.011236,0.000000,0.000000,0.000000,0.000000,0.000000
16.734673,-0.011236,0.000000,0.000000,0.000000,0.000000,0.000000
16.744673,-0.011236,0.000000,0.000000,0.000000,0.000000,0.000000
16.754673,-0.011236,0.000000,0.000000,0.000000,0.000000,0.000000
16.764673,-0.011236,0.000000,0.000000,0.000000,0.000000,0.000000
16.774673,-0.011236,0.000000,0.000000,0.000000,0.000000,0.000000
16.784673,-0.011236,0.000000,0.000000,0.000000,0.000000,0.000000
16.794673,-0.011236,0.000000,0.000000,0.000000,0.000000,0.000000
16.804673,-0.011236,0.000000,0.000000,0.000000,0.000000,0.000000
16.814673,-0.011236,0.000000,0.000000,0.000000,0.000000,0.000000
16.824673,-0.011236,0.000000,0.000000,0.000000,0.000000,0.000000
16.834673,-0.011236,0.000000,0.000000,0.000000,0.000000,0.000000
16.844673,-0.011236,0.000000,0.000000,0.000000,0.000000,0.000000
16.854673,-0.011236,0.000000,0.000000,0.000000,0.000000,0.000000
16.864673,-0.011236,0.000000,0.000000,0.000000,0.000000,0.000000
16.874673,-0.020049,0.000000,0.000000,0.000000,0.000000,0.000000
16.884673,-0.020049,0.000000,0.000000,0.000000,0.000000,0.000000
16.894673,-0.020049,0.000000,0.000000,0.000000,0.000000,0.000000
16.904673,-0.020049,0.000000,0.000000,0.000000,0.000000,0.000000
16.914673,-0.020049,0.000000,0.000000,0.000000,0.000000,0.000000
16.924673,-0.020049,0.000000,0.000000,0.000000,0.000000,0.000000
16.934673,-0.020049,0.000000,0.000000,0.000000,0.000000,0.000000
16.944673,-0.020049,0.000000,0.000000,0.000000,0.000000,0.000000
16.954673,-0.020049,0.000000,0.000000,0.000000,0.000000,0.000000
16.964673,-0.020049,0.000000,0.000000,0.000000,0.000000,0.000000
16.974673,-0.020049,0.000000,0.000000,0.000000,0.000000,0.000000
16.984673,-0.020049,0.000000,0.000000,0.000000,0.000000,0.000000
16.994673,-0.020049,0.000000,0.000000,0.000000,0.000000,0.000000
17.004673,-0.020049,0.000000,0.000000,0.000000,0.000000,0.000000
17.014673,-0.020049,0.000000,0.000000,0.000000,0.000000,0.000000
17.024673,-0.029327,0.000000,0.000000,0.000000,0.000000,0.000000
17.034673,-0.029327,0.000000,0.000000,0.000000,0.000000,0.000000
17.044673,-0.029327,0.000000,0.000000,0.000000,0.000000,0.000000
17.054673,-0.029327,0.000000,0.000000,0.000000,0.000000,0.000000
17.064673,-0.029327,0.000000,0.000000,0.000000,0.000000,0.000000
17.074673,-0.029327,0.000000,0.000000,0.000000,0.000000,0.000000
17.084673,-0.029327,0.000000,0.000000,0.000000,0.000000,0.000000
17.094673,-0.029327,0.000000,0.000000,0.000000,0.000000,0.000000
17.104673,-0.029327,0.000000,0.000000,0.000000,0.000000,0.000000
17.114673,-0.029327,0.000000,0.000000,0.000000,0.000000,0.000000
17.124673,-0.029327,0.000000,0.000000,0.000000,0.000000,0.000000
17.134673,-0.029327,0.000000,0.000000,0.000000,0.000000,0.000000
17.144673,-0.029327,0.000000,0.000000,0.000000,0.000000,0.000000
17.154673,-0.029327,0.000000,0.000000,0.000000,0.000000,0.000000
17.164673,-0.029327,0.000000,0.000000,0.000000,0.000000,0.000000
17.174673,-0.029327,0.000000,0.000000,0.000000,0.000000,0.000000
17.184673,-0.036711,0.000000,0.000000,0.000000,0.000000,0.000000
17.194673,-0.036711,0.000000,0.000000,0.000000,0.000000,0.000000
17.204673,-0.036711,0.000000,0.000000,0.000000,0.000000,0.000000
17.214673,-0.036711,0.000000,0.000000,0.000000,0.000000,0.000000
17.224673,-0.036711,0.000000,0.000000,0.000000,0.000000,0.000000
17.234673,-0.036711,0.000000,0.000000,0.000000,0.000000,0.000000
17.244673,-0.036711,0.000000,0.000000,0.000000,0.000000,0.000000
17.254673,-0.036711,0.000000,0.000000,0.000000,0.000000,0.000000
17.264673,-0.036711,0.000000,0.000000,0.000000,0.000000,0.000000
17.274673,-0.036711,0.000000,0.000000,0.000000,0.000000,0.000000
17.284673,-0.036711,0.000000,0.000000,0.000000,0.000000,0.000000
17.294673,-0.036711,0.000000,0.000000,0.000000,0.000000,0.000000
17.304673,-0.036711,0.000000,0.000000,0.000000,0.000000,0.000000
17.314673,-0.046577,0.000000,0.000000,0.000000,0.000000,0.000000
17.324673,-0.046577,0.000000,0.000000,0.000000,0.000000,0.000000
17.334673,-0.046577,0.000000,0.000000,0.000000,0.000000,0.000000
17.344673,-0.046577,0.000000,0.000000,0.000000,0.000000,0.000000
17.354673,-0.046577,0.000000,0.000000,0.000000,0.000000,0.000000
17.364673,-0.046577,0.000000,0.000000,0.000000,0.000000,0.000000
17.374673,-0.046577,0.000000,0.000000,0.000000,0.000000,0.000000
17.384673,-0.046577,0.000000,0.000000,0.000000,0.000000,0.000000
17.394673,-0.046577,0.000000,0.000000,0.000000,0.000000,0.000000
17.404673,-0.046577,0.000000,0.000000,0.000000,0.000000,0.000000
17.414673,-0.046577,0.000000,0.000000,0.000000,0.000000,0.000000
17.424673,-0.046577,0.000000,0.000000,0.000000,0.000000,0.000000
17.434673,-0.046577,0.000000,0.000000,0.000000,0.000000,0.000000
17.444673,-0.046577,0.000000,0.000000,0.000000,0.000000,0.000000
17.454673,-0.046577,0.000000,0.000000,0.000000,0.000000,0.000000
17.464673,-0.046577,0.000000,0.000000,0.000000,0.000000,0.000000
17.474673,-0.046577,0.000000,0.000000,0.000000,0.000000,0.000000
17.484673,-0.046577,0.000000,0.000000,0.000000,0.000000,0.000000
17.494673,-0.054332,0.000000,0.000000,0.000000,0.000000,0.000000
17.504673,-0.054332,0.000000,0.000000,0.000000,0.000000,0.000000
17.514673,-0.054332,0.000000,0.000000,0.000000,0.000000,0.000000
17.524673,-0.054332,0.000000,0.000000,0.000000,0.000000,0.000000
17.534673,-0.054332,0.000000,0.000000,0.000000,0.000000,0.000000
17.544673,-0.054332,0.000000,0.000000,0.000000,0.000000,0.000000
17.554673,-0.054332,0.000000,0.000000,0.000000,0.000000,0.000000
17.564673,-0.054332,0.000000,0.000000,0.000000,0.000000,0.000000
17.574673,-0.054332,0.000000,0.000000,0.000000,0.000000,0.000000
17.584673,-0.054332,0.000000,0.000000,0.000000,0.000000,0.000000
17.594673,-0.054332,0.000000,0.000000,0.000000,0.000000,0.000000
17.604673,-0.054332,0.000000,0.000000,0.000000,0.000000,0.000000
17.614673,-0.054332,0.000000,0.000000,0.000000,0.000000,0.000000
17.624673,-0.054332,0.000000,0.000000,0.000000,0.000000,0.000000
17.634673,-0.054332,0.000000,0.000000,0.000000,0.000000,0.000000
17.644673,-0.061031,0.000000,0.000000,0.000000,0.000000,0.000000
17.654673,-0.061031,0.000000,0.000000,0.000000,0.000000,0.000000
17.664673,-0.061031,0.000000,0.000000,0.000000,0.000000,0.000000
17.674673,-0.061031,0.000000,0.000000,0.000000,0.000000,0.000000
17.684673,-0.061031,0.000000,0.000000,0.000000,0.000000,0.000000
17.694673,-0.061031,0.000000,0.000000,0.000000,0.000000,0.000000
17.704673,-0.061031,0.000000,0.000000,0.000000,0.000000,0.000000
17.714673,-0.061031,0.000000,0.000000,0.000000,0.000000,0.000000
17.724673,-0.061031,0.000000,0.000000,0.000000,0.000000,0.000000
17.734673,-0.061031,0.000000,0.000000,0.000000,0.000000,0.000000
17.744673,-0.061031,0.000000,0.000000,0.000000,0.000000,0.000000
17.754673,-0.061031,0.000000,0.000000,0.000000,0.000000,0.000000
17.764673,-0.061031,0.000000,0.000000,0.000000,0.000000,0.000000
17.774673,-0.061031,0.000000,0.000000,0.000000,0.000000,0.000000
17.784673,-0.066232,0.000000,0.000000,0.000000,0.000000,0.000000
17.794673,-0.066232,0.000000,0.000000,0.000000,0.000000,0.000000
17.804673,-0.066232,0.000000,0.000000,0.000000,0.000000,0.000000
17.814673,-0.066232,0.000000,0.000000,0.000000,0.000000,0.000000
17.824673,-0.066232,0.000000,0.000000,0.000000,0.000000,0.000000
17.834673,-0.066232,0.000000,0.000000,0.000000,0.000000,0.000000
17.844673,-0.066232,0.000000,0.000000,0.000000,0.000000,0.000000
17.854673,-0.066232,0.000000,0.000000,0.000000,0.000000,0.000000
17.864673,-0.066232,0.000000,0.000000,0.000000,0.000000,0.000000
17.874673,-0.066232,0.000000,0.000000,0.000000,0.000000,0.000000
17.884673,-0.066232,0.000000,0.000000,0.000000,0.000000,0.000000
17.894673,-0.066232,0.000000,0.000000,0.000000,0.000000,0.000000
17.904673,-0.071162,0.000000,0.000000,0.000000,0.000000,0.000000
17.914673,-0.071162,0.000000,0.000000,0.000000,0.000000,0.000000
17.924673,-0.071162,0.000000,0.000000,0.000000,0.000000,0.000000
17.934673,-0.071162,0.000000,0.000000,0.000000,0.000000,0.000000
17.944673,-0.071162,0.000000,0.000000,0.000000,0.000000,0.000000
17.954673,-0.071162,0.000000,0.000000,0.000000,0.000000,0.000000
17.964673,-0.071162,0.000000,0.000000,0.000000,0.000000,0.000000
17.974673,-0.071162,0.000000,0.000000,0.000000,0.000000,0.000000
17.984673,-0.071162,0.000000,0.000000,0.000000,0.000000,0.000000
17.994673,-0.071162,0.000000,0.000000,0.000000,0.000000,0.000000
18.004673,-0.071162,0.000000,0.000000,0.000000,0.000000,0.000000
18.014673,-0.071162,0.000000,0.000000,0.000000,0.000000,0.000000
18.024673,-0.071162,0.000000,0.000000,0.000000,0.000000,0.000000
18.034673,-0.075470,0.000000,0.000000,0.000000,0.000000,0.000000
18.044673,-0.075470,0.000000,0.000000,0.000000,0.000000,0.000000
18.054673,-0.075470,0.000000,0.000000,0.000000,0.000000,0.000000
18.064673,-0.075470,0.000000,0.000000,0.000000,0.000000,0.000000
18.074673,-0.075470,0.000000,0.000000,0.000000,0.000000,0.000000
18.084673,-0.075470,0.000000,0.000000,0.000000,0.000000,0.000000
18.094673,-0.075470,0.000000,0.000000,0.000000,0.000000,0.000000
18.104673,-0.075470,0.000000,0.000000,0.000000,0.000000,0.000000
18.114673,-0.075470,0.000000,0.000000,0.000000,0.000000,0.000000
18.124673,-0.075470,0.000000,0.000000,0.000000,0.000000,0.000000
18.134673,-0.075470,0.000000,0.000000,0.000000,0.000000,0.000000
18.144673,-0.075470,0.000000,0.000000,0.000000,0.000000,0.000000
18.154673,-0.075470,0.000000,0.000000,0.000000,0.000000,0.000000
18.164673,-0.075470,0.000000,0.000000,0.000000,0.000000,0.000000
18.174673,-0.078358,0.000000,0.000000,0.000000,0.000000,0.000000
18.184673,-0.078358,0.000000,0.000000,0.000000,0.000000,0.000000
18.194673,-0.078358,0.000000,0.000000,0.000000,0.000000,0.000000
18.204673,-0.078358,0.000000,0.000000,0.000000,0.000000,0.000000
18.214673,-0.078358,0.000000,0.000000,0.000000,0.000000,0.000000
18.224673,-0.078358,0.000000,0.000000,0.000000,0.000000,0.000000
18.234673,-0.078358,0.000000,0.000000,0.000000,0.000000,0.000000
18.244673,-0.078358,0.000000,0.000000,0.000000,0.000000,0.000000
18.254673,-0.078358,0.000000,0.000000,0.000000,0.000000,0.000000
18.264673,-0.078358,0.000000,0.000000,0.000000,0.000000,0.000000
18.274673,-0.078358,0.000000,0.000000,0.000000,0.000000,0.000000
18.284673,-0.078358,0.000000,0.000000,0.000000,0.000000,0.000000
18.294673,-0.078358,0.000000,0.000000,0.000000,0.000000,0.000000
18.304673,-0.080070,0.000000,0.000000,0.000000,0.000000,0.000000
18.314673,-0.080070,0.000000,0.000000,0.000000,0.000000,0.000000
18.324673,-0.080070,0.000000,0.000000,0.000000,0.000000,0.000000
18.334673,-0.080070,0.000000,0.000000,0.000000,0.000000,0.000000
18.344673,-0.080070,0.000000,0.000000,0.000000,0.000000,0.000000
18.354673,-0.080070,0.000000,0.000000,0.000000,0.000000,0.000000
18.364673,-0.080070,0.000000,0.000000,0.000000,0.000000,0.000000
18.374673,-0.080070,0.000000,0.000000,0.000000,0.000000,0.000000
18.384673,-0.080070,0.000000,0.000000,0.000000,0.000000,0.000000
18.394673,-0.080070,0.000000,0.000000,0.000000,0.000000,0.000000
18.404673,-0.080070,0.000000,0.000000,0.000000,0.000000,0.000000
18.414673,-0.080070,0.000000,0.000000,0.000000,0.000000,0.000000
18.424673,-0.080070,0.000000,0.000000,0.000000,0.000000,0.000000
18.434673,-0.080185,0.000000,0.000000,0.000000,0.000000,0.000000
18.444673,-0.080185,0.000000,0.000000,0.000000,0.000000,0.000000
18.454673,-0.080185,0.000000,0.000000,0.000000,0.000000,0.000000
18.464673,-0.080185,0.000000,0.000000,0.000000,0.000000,0.000000
18.474673,-0.080185,0.000000,0.000000,0.000000,0.000000,0.000000
18.484673,-0.080185,0.000000,0.000000,0.000000,0.000000,0.000000
18.494673,-0.080185,0.000000,0.000000,0.000000,0.000000,0.000000
18.504673,-0.080185,0.000000,0.000000,0.000000,0.000000,0.000000
18.514673,-0.080185,0.000000,0.000000,0.000000,0.000000,0.000000
18.524673,-0.080185,0.000000,0.000000,0.000000,0.000000,0.000000
18.534673,-0.080185,0.000000,0.000000,0.000000,0.000000,0.000000
18.544673,-0.080185,0.000000,0.000000,0.000000,0.000000,0.000000
18.554673,-0.080185,0.000000,0.000000,0.000000,0.000000,0.000000
18.564673,-0.080185,0.000000,0.000000,0.000000,0.000000,0.000000
18.574673,-0.078556,0.000000,0.000000,0.000000,0.000000,0.000000
18.584673,-0.078556,0.000000,0.000000,0.000000,0.000000,0.000000
18.594673,-0.078556,0.000000,0.000000,0.000000,0.000000,0.000000
18.604673,-0.078556,0.000000,0.000000,0.000000,0.000000,0.000000
18.614673,-0.078556,0.000000,0.000000,0.000000,0.000000,0.000000
18.624673,-0.078556,0.000000,0.000000,0.000000,0.000000,0.000000
18.634673,-0.078556,0.000000,0.000000,0.000000,0.000000,0.000000
18.644673,-0.078556,0.000000,0.000000,0.000000,0.000000,0.000000
18.654673,-0.078556,0.000000,0.000000,0.000000,0.000000,0.000000
18.664673,-0.078556,0.000000,0.000000,0.000000,0.000000,0.000000
18.674673,-0.078556,0.000000,0.000000,0.000000,0.000000,0.000000
18.684673,-0.078556,0.000000,0.000000,0.000000,0.000000,0.000000
18.694673,-0.078556,0.000000,0.000000,0.000000,0.000000,0.000000
18.704673,-0.078556,0.000000,0.000000,0.000000,0.000000,0.000000
18.714673,-0.075615,0.000000,0.000000,0.000000,0.000000,0.000000
18.724673,-0.075615,0.000000,0.000000,0.000000,0.000000,0.000000
18.734673,-0.075615,0.000000,0.000000,0.000000,0.000000,0.000000
18.744673,-0.075615,0.000000,0.000000,0.000000,0.000000,0.000000
18.754673,-0.075615,0.000000,0.000000,0.000000,0.000000,0.000000
18.764673,-0.075615,0.000000,0.000000,0.000000,0.000000,0.000000
18.774673,-0.075615,0.000000,0.000000,0.000000,0.000000,0.000000
18.784673,-0.075615,0.000000,0.000000,0.000000,0.000000,0.000000
18.794673,-0.075615,0.000000,0.000000,0.000000,0.000000,0.000000
18.804673,-0.075615,0.000000,0.000000,0.000000,0.000000,0.000000
18.814673,-0.075615,0.000000,0.000000,0.000000,0.000000,0.000000
18.824673,-0.075615,0.000000,0.000000,0.000000,0.000000,0.000000
18.834673,-0.069870,0.000000,0.000000,0.000000,0.000000,0.000000
18.844673,-0.069870,0.000000,0.000000,0.000000,0.000000,0.000000
18.854673,-0.069870,0.000000,0.000000,0.000000,0.000000,0.000000
18.864673,-0.069870,0.000000,0.000000,0.000000,0.000000,0.000000
18.874673,-0.069870,0.000000,0.000000,0.000000,0.000000,0.000000
18.884673,-0.069870,0.000000,0.000000,0.000000,0.000000,0.000000
18.894673,-0.069870,0.000000,0.000000,0.000000,0.000000,0.000000
18.904673,-0.069870,0.000000,0.000000,0.000000,0.000000,0.000000
18.914673,-0.069870,0.000000,0.000000,0.000000,0.000000,0.000000
18.924673,-0.069870,0.000000,0.000000,0.000000,0.000000,0.000000
18.934673,-0.069870,0.000000,0.000000,0.000000,0.000000,0.000000
18.944673,-0.069870,0.000000,0.000000,0.000000,0.000000,0.000000
18.954673,-0.069870,0.000000,0.000000,0.000000,0.000000,0.000000
18.964673,-0.069870,0.000000,0.000000,0.000000,0.000000,0.000000
18.974673,-0.069870,0.000000,0.000000,0.000000,0.000000,0.000000
18.984673,-0.062472,0.000000,0.000000,0.000000,0.000000,0.000000
18.994673,-0.062472,0.000000,0.000000,0.000000,0.000000,0.000000
19.004673,-0.062472,0.000000,0.000000,0.000000,0.000000,0.000000
19.014673,-0.062472,0.000000,0.000000,0.000000,0.000000,0.000000
19.024673,-0.062472,0.000000,0.000000,0.000000,0.000000,0.000000
19.034673,-0.062472,0.000000,0.000000,0.000000,0.000000,0.000000
19.044673,-0.062472,0.000000,0.000000,0.000000,0.000000,0.000000
19.054673,-0.062472,0.000000,0.000000,0.000000,0.000000,0.000000
19.064673,-0.062472,0.000000,0.000000,0.000000,0.000000,0.000000
19.074673,-0.062472,0.000000,0.000000,0.000000,0.000000,0.000000
19.084673,-0.062472,0.000000,0.000000,0.000000,0.000000,0.000000
19.094673,-0.062472,0.000000,0.000000,0.000000,0.000000,0.000000
19.104673,-0.062472,0.000000,0.000000,0.000000,0.000000,0.000000
19.114673,-0.062472,0.000000,0.000000,0.000000,0.000000,0.000000
19.124673,-0.053282,0.000000,0.000000,0.000000,0.000000,0.000000
19.134673,-0.053282,0.000000,0.000000,0.000000,0.000000,0.000000
19.144673,-0.053282,0.000000,0.000000,0.000000,0.000000,0.000000
19.154673,-0.053282,0.000000,0.000000,0.000000,0.000000,0.000000
19.164673,-0.053282,0.000000,0.000000,0.000000,0.000000,0.000000
19.174673,-0.053282,0.000000,0.000000,0.000000,0.000000,0.000000
19.184673,-0.053282,0.000000,0.000000,0.000000,0.000000,0.000000
19.194673,-0.053282,0.000000,0.000000,0.000000,0.000000,0.000000
19.204673,-0.053282,0.000000,0.000000,0.000000,0.000000,0.000000
19.214673,-0.053282,0.000000,0.000000,0.000000,0.000000,0.000000
19.224673,-0.053282,0.000000,0.000000,0.000000,0.000000,0.000000
19.234673,-0.053282,0.000000,0.000000,0.000000,0.000000,0.000000
19.244673,-0.053282,0.000000,0.000000,0.000000,0.000000,0.000000
19.254673,-0.053282,0.000000,0.000000,0.000000,0.000000,0.000000
19.264673,-0.041044,0.000000,0.000000,0.000000,0.000000,0.000000
19.274673,-0.041044,0.000000,0.000000,0.000000,0.000000,0.000000
19.284673,-0.041044,0.000000,0.000000,0.000000,0.000000,0.000000
19.294673,-0.041044,0.000000,0.000000,0.000000,0.000000,0.000000
19.304673,-0.041044,0.000000,0.000000,0.000000,0.000000,0.000000
19.314673,-0.041044,0.000000,0.000000,0.000000,0.000000,0.000000
19.324673,-0.041044,0.000000,0.000000,0.000000,0.000000,0.000000
19.334673,-0.041044,0.000000,0.000000,0.000000,0.000000,0.000000
19.344673,-0.041044,0.000000,0.000000,0.000000,0.000000,0.000000
19.354673,-0.041044,0.000000,0.000000,0.000000,0.000000,0.000000
19.364673,-0.041044,0.000000,0.000000,0.000000,0.000000,0.000000
19.374673,-0.041044,0.000000,0.000000,0.000000,0.000000,0.000000
19.384673,-0.041044,0.000000,0.000000,0.000000,0.000000,0.000000
19.394673,-0.041044,0.000000,0.000000,0.000000,0.000000,0.000000
19.404673,-0.041044,0.000000,0.000000,0.000000,0.000000,0.000000
19.414673,-0.041044,0.000000,0.000000,0.000000,0.000000,0.000000
19.424673,-0.029477,0.000000,0.000000,0.000000,0.000000,0.000000
19.434673,-0.029477,0.000000,0.000000,0.000000,0.000000,0.000000
19.444673,-0.029477,0.000000,0.000000,0.000000,0.000000,0.000000
19.454673,-0.029477,0.000000,0.000000,0.000000,0.000000,0.000000
19.464673,-0.029477,0.000000,0.000000,0.000000,0.000000,0.000000
19.474673,-0.029477,0.000000,0.000000,0.000000,0.000000,0.000000
19.484673,-0.029477,0.000000,0.000000,0.000000,0.000000,0.000000
19.494673,-0.029477,0.000000,0.000000,0.000000,0.000000,0.000000
19.504673,-0.029477,0.000000,0.000000,0.000000,0.000000,0.000000
19.514673,-0.029477,0.000000,0.000000,0.000000,0.000000,0.000000
19.524673,-0.029477,0.000000,0.000000,0.000000,0.000000,0.000000
