time,linear_accel_x,linear_accel_y,linear_accel_z,angular_vel_x,angular_vel_y,angular_vel_z
0.127420,0.004800,0.000000,0.000000,0.000000,0.000000,0.000000
0.137420,0.005600,0.000000,0.000000,0.000000,0.000000,0.000000
0.147420,0.005600,0.000000,0.000000,0.000000,0.000000,0.000000
0.157420,0.006400,0.000000,0.000000,0.000000,0.000000,0.000000
0.167420,0.006400,0.000000,0.000000,0.000000,0.000000,0.000000
0.177420,0.007200,0.000000,0.000000,0.000000,0.000000,0.000000
0.187420,0.007200,0.000000,0.000000,0.000000,0.000000,0.000000
0.197420,0.008000,0.000000,0.000000,0.000000,0.000000,0.000000
0.207420,0.008000,0.000000,0.000000,0.000000,0.000000,0.000000
0.217420,0.008800,0.000000,0.000000,0.000000,0.000000,0.000000
0.227420,0.008800,0.000000,0.000000,0.000000,0.000000,0.000000
0.237420,0.010400,0.000000,0.000000,0.000000,0.000000,0.000000
0.247420,0.010400,0.000000,0.000000,0.000000,0.000000,0.000000
0.257420,0.010400,0.000000,0.000000,0.000000,0.000000,0.000000
0.267420,0.010400,0.000000,0.000000,0.000000,0.000000,0.000000
0.277420,0.011200,0.000000,0.000000,0.000000,0.000000,0.000000
0.287420,0.011200,0.000000,0.000000,0.000000,0.000000,0.000000
0.297420,0.012000,0.000000,0.000000,0.000000,0.000000,0.000000
0.307420,0.012000,0.000000,0.000000,0.000000,0.000000,0.000000
0.317420,0.012000,0.000000,0.000000,0.000000,0.000000,0.000000
0.327420,0.012800,0.000000,0.000000,0.000000,0.000000,0.000000
0.337420,0.013600,0.000000,0.000000,0.000000,0.000000,0.000000
0.347420,0.013600,0.000000,0.000000,0.000000,0.000000,0.000000
0.357420,0.014400,0.000000,0.000000,0.000000,0.000000,0.000000
0.367420,0.014400,0.000000,0.000000,0.000000,0.000000,0.000000
0.377420,0.015200,0.000000,0.000000,0.000000,0.000000,0.000000
0.387420,0.015200,0.000000,0.000000,0.000000,0.000000,0.000000
0.397420,0.015200,0.000000,0.000000,0.000000,0.000000,0.000000
0.407420,0.015200,0.000000,0.000000,0.000000,0.000000,0.000000
0.417420,0.015200,0.000000,0.000000,0.000000,0.000000,0.000000
0.427420,0.015200,0.000000,0.000000,0.000000,0.000000,0.000000
0.437420,0.015200,0.000000,0.000000,0.000000,0.000000,0.000000
0.447420,0.015200,0.000000,0.000000,0.000000,0.000000,0.000000
0.457420,0.015200,0.000000,0.000000,0.000000,0.000000,0.000000
0.467420,0.015200,0.000000,0.000000,0.000000,0.000000,0.000000
0.477420,0.015200,0.000000,0.000000,0.000000,0.000000,0.000000
0.487420,0.015200,0.000000,0.000000,0.000000,0.000000,0.000000
0.497420,0.015200,0.000000,0.000000,0.000000,0.000000,0.000000
0.507420,0.015200,0.000000,0.000000,0.000000,0.000000,0.000000
0.517420,0.015200,0.000000,0.000000,0.000000,0.000000,0.000000
0.527420,0.015200,0.000000,0.000000,0.000000,0.000000,0.000000
0.537420,0.015200,0.000000,0.000000,0.000000,0.000000,0.000000
0.547420,0.015200,0.000000,0.000000,0.000000,0.000000,0.000000
0.557420,0.015200,0.000000,0.000000,0.000000,0.000000,0.000000
0.567420,0.015200,0.000000,0.000000,0.000000,0.000000,0.000000
0.577420,0.015200,0.000000,0.000000,0.000000,0.000000,0.000000
0.587420,0.015200,0.000000,0.000000,0.000000,0.000000,0.000000
0.597420,0.016800,0.000000,0.000000,0.000000,0.000000,0.000000
0.607420,0.016800,0.000000,0.000000,0.000000,0.000000,0.000000
0.617420,0.017600,0.000000,0.000000,0.000000,0.000000,0.000000
0.627420,0.017600,0.000000,0.000000,0.000000,0.000000,0.000000
0.637420,0.019200,0.000000,0.000000,0.000000,0.000000,0.000000
0.647420,0.019200,0.000000,0.000000,0.000000,0.000000,0.000000
0.657420,0.019200,0.000000,0.000000,0.000000,0.000000,0.000000
0.667420,0.019200,0.000000,0.000000,0.000000,0.000000,0.000000
0.677420,0.020000,0.000000,0.000000,0.000000,0.000000,0.000000
0.687420,0.020000,0.000000,0.000000,0.000000,0.000000,0.000000
0.697420,0.021600,0.000000,0.000000,0.000000,0.000000,0.000000
0.707420,0.021600,0.000000,0.000000,0.000000,0.000000,0.000000
0.717420,0.021600,0.000000,0.000000,0.000000,0.000000,0.000000
0.727420,0.021600,0.000000,0.000000,0.000000,0.000000,0.000000
0.737420,0.022400,0.000000,0.000000,0.000000,0.000000,0.000000
0.747420,0.022400,0.000000,0.000000,0.000000,0.000000,0.000000
0.757420,0.023200,0.000000,0.000000,0.000000,0.000000,0.000000
0.767420,0.023200,0.000000,0.000000,0.000000,0.000000,0.000000
0.777420,0.024800,0.000000,0.000000,0.000000,0.000000,0.000000
0.787420,0.024800,0.000000,0.000000,0.000000,0.000000,0.000000
0.797420,0.024800,0.000000,0.000000,0.000000,0.000000,0.000000
0.807420,0.024800,0.000000,0.000000,0.000000,0.000000,0.000000
0.817420,0.026400,0.000000,0.000000,0.000000,0.000000,0.000000
0.827420,0.026400,0.000000,0.000000,0.000000,0.000000,0.000000
0.837420,0.026400,0.000000,0.000000,0.000000,0.000000,0.000000
0.847420,0.026400,0.000000,0.000000,0.000000,0.000000,0.000000
0.857420,0.027200,0.000000,0.000000,0.000000,0.000000,0.000000
0.867420,0.027200,0.000000,0.000000,0.000000,0.000000,0.000000
0.877420,0.028800,0.000000,0.000000,0.000000,0.000000,0.000000
0.887420,0.028800,0.000000,0.000000,0.000000,0.000000,0.000000
0.897420,0.028800,0.000000,0.000000,0.000000,0.000000,0.000000
0.907420,0.028800,0.000000,0.000000,0.000000,0.000000,0.000000
0.917420,0.029600,0.000000,0.000000,0.000000,0.000000,0.000000
0.927420,0.029600,0.000000,0.000000,0.000000,0.000000,0.000000
0.937420,0.030400,0.000000,0.000000,0.000000,0.000000,0.000000
0.947420,0.030400,0.000000,0.000000,0.000000,0.000000,0.000000
0.957420,0.032000,0.000000,0.000000,0.000000,0.000000,0.000000
0.967420,0.032000,0.000000,0.000000,0.000000,0.000000,0.000000
0.977420,0.032000,0.000000,0.000000,0.000000,0.000000,0.000000
0.987420,0.032000,0.000000,0.000000,0.000000,0.000000,0.000000
0.997420,0.033600,0.000000,0.000000,0.000000,0.000000,0.000000
1.007420,0.033600,0.000000,0.000000,0.000000,0.000000,0.000000
1.017420,0.033600,0.000000,0.000000,0.000000,0.000000,0.000000
1.027420,0.033600,0.000000,0.000000,0.000000,0.000000,0.000000
1.037420,0.034400,0.000000,0.000000,0.000000,0.000000,0.000000
1.047420,0.034400,0.000000,0.000000,0.000000,0.000000,0.000000
1.057420,0.036000,0.000000,0.000000,0.000000,0.000000,0.000000
1.067420,0.036000,0.000000,0.000000,0.000000,0.000000,0.000000
1.077420,0.036000,0.000000,0.000000,0.000000,0.000000,0.000000
1.087420,0.036000,0.000000,0.000000,0.000000,0.000000,0.000000
1.097420,0.036800,0.000000,0.000000,0.000000,0.000000,0.000000
1.107420,0.036800,0.000000,0.000000,0.000000,0.000000,0.000000
1.117420,0.038400,0.000000,0.000000,0.000000,0.000000,0.000000
1.127420,0.038400,0.000000,0.000000,0.000000,0.000000,0.000000
1.137420,0.038400,0.000000,0.000000,0.000000,0.000000,0.000000
1.147420,0.038400,0.000000,0.000000,0.000000,0.000000,0.000000
1.157420,0.039200,0.000000,0.000000,0.000000,0.000000,0.000000
1.167420,0.039200,0.000000,0.000000,0.000000,0.000000,0.000000
1.177420,0.040800,0.000000,0.000000,0.000000,0.000000,0.000000
1.187420,0.040800,0.000000,0.000000,0.000000,0.000000,0.000000
1.197420,0.040800,0.000000,0.000000,0.000000,0.000000,0.000000
1.207420,0.040800,0.000000,0.000000,0.000000,0.000000,0.000000
1.217420,0.042400,0.000000,0.000000,0.000000,0.000000,0.000000
1.227420,0.042400,0.000000,0.000000,0.000000,0.000000,0.000000
1.237420,0.042400,0.000000,0.000000,0.000000,0.000000,0.000000
1.247420,0.042400,0.000000,0.000000,0.000000,0.000000,0.000000
1.257420,0.043200,0.000000,0.000000,0.000000,0.000000,0.000000
1.267420,0.043200,0.000000,0.000000,0.000000,0.000000,0.000000
1.277420,0.044800,0.000000,0.000000,0.000000,0.000000,0.000000
1.287420,0.044800,0.000000,0.000000,0.000000,0.000000,0.000000
1.297420,0.044800,0.000000,0.000000,0.000000,0.000000,0.000000
1.307420,0.044800,0.000000,0.000000,0.000000,0.000000,0.000000
1.317420,0.045600,0.000000,0.000000,0.000000,0.000000,0.000000
1.327420,0.045600,0.000000,0.000000,0.000000,0.000000,0.000000
1.337420,0.047200,0.000000,0.000000,0.000000,0.000000,0.000000
1.347420,0.047200,0.000000,0.000000,0.000000,0.000000,0.000000
1.357420,0.047200,0.000000,0.000000,0.000000,0.000000,0.000000
1.367420,0.047200,0.000000,0.000000,0.000000,0.000000,0.000000
1.377420,0.048800,0.000000,0.000000,0.000000,0.000000,0.000000
1.387420,0.048800,0.000000,0.000000,0.000000,0.000000,0.000000
1.397420,0.048800,0.000000,0.000000,0.000000,0.000000,0.000000
1.407420,0.048800,0.000000,0.000000,0.000000,0.000000,0.000000
1.417420,0.049600,0.000000,0.000000,0.000000,0.000000,0.000000
1.427420,0.049600,0.000000,0.000000,0.000000,0.000000,0.000000
1.437420,0.051200,0.000000,0.000000,0.000000,0.000000,0.000000
1.447420,0.051200,0.000000,0.000000,0.000000,0.000000,0.000000
1.457420,0.051200,0.000000,0.000000,0.000000,0.000000,0.000000
1.467420,0.051200,0.000000,0.000000,0.000000,0.000000,0.000000
1.477420,0.051200,0.000000,0.000000,0.000000,0.000000,0.000000
1.487420,0.052800,0.000000,0.000000,0.000000,0.000000,0.000000
1.497420,0.052800,0.000000,0.000000,0.000000,0.000000,0.000000
1.507420,0.052800,0.000000,0.000000,0.000000,0.000000,0.000000
1.517420,0.053600,0.000000,0.000000,0.000000,0.000000,0.000000
1.527420,0.053600,0.000000,0.000000,0.000000,0.000000,0.000000
1.537420,0.055200,0.000000,0.000000,0.000000,0.000000,0.000000
1.547420,0.055200,0.000000,0.000000,0.000000,0.000000,0.000000
1.557420,0.055200,0.000000,0.000000,0.000000,0.000000,0.000000
1.567420,0.055200,0.000000,0.000000,0.000000,0.000000,0.000000
1.577420,0.056000,0.000000,0.000000,0.000000,0.000000,0.000000
1.587420,0.056000,0.000000,0.000000,0.000000,0.000000,0.000000
1.597420,0.057600,0.000000,0.000000,0.000000,0.000000,0.000000
1.607420,0.057600,0.000000,0.000000,0.000000,0.000000,0.000000
1.617420,0.057600,0.000000,0.000000,0.000000,0.000000,0.000000
1.627420,0.057600,0.000000,0.000000,0.000000,0.000000,0.000000
1.637420,0.058400,0.000000,0.000000,0.000000,0.000000,0.000000
1.647420,0.058400,0.000000,0.000000,0.000000,0.000000,0.000000
1.657420,0.060000,0.000000,0.000000,0.000000,0.000000,0.000000
1.667420,0.060000,0.000000,0.000000,0.000000,0.000000,0.000000
1.677420,0.060000,0.000000,0.000000,0.000000,0.000000,0.000000
1.687420,0.060000,0.000000,0.000000,0.000000,0.000000,0.000000
1.697420,0.061600,0.000000,0.000000,0.000000,0.000000,0.000000
1.707420,0.061600,0.000000,0.000000,0.000000,0.000000,0.000000
1.717420,0.061600,0.000000,0.000000,0.000000,0.000000,0.000000
1.727420,0.061600,0.000000,0.000000,0.000000,0.000000,0.000000
1.737420,0.061600,0.000000,0.000000,0.000000,0.000000,0.000000
1.747420,0.062400,0.000000,0.000000,0.000000,0.000000,0.000000
1.757420,0.062400,0.000000,0.000000,0.000000,0.000000,0.000000
1.767420,0.064000,0.000000,0.000000,0.000000,0.000000,0.000000
1.777420,0.064000,0.000000,0.000000,0.000000,0.000000,0.000000
1.787420,0.064000,0.000000,0.000000,0.000000,0.000000,0.000000
1.797420,0.064800,0.000000,0.000000,0.000000,0.000000,0.000000
1.807420,0.064800,0.000000,0.000000,0.000000,0.000000,0.000000
1.817420,0.064800,0.000000,0.000000,0.000000,0.000000,0.000000
1.827420,0.066400,0.000000,0.000000,0.000000,0.000000,0.000000
1.837420,0.066400,0.000000,0.000000,0.000000,0.000000,0.000000
1.847420,0.066400,0.000000,0.000000,0.000000,0.000000,0.000000
1.857420,0.066400,0.000000,0.000000,0.000000,0.000000,0.000000
1.867420,0.067200,0.000000,0.000000,0.000000,0.000000,0.000000
1.877420,0.068800,0.000000,0.000000,0.000000,0.000000,0.000000
1.887420,0.068800,0.000000,0.000000,0.000000,0.000000,0.000000
1.897420,0.068800,0.000000,0.000000,0.000000,0.000000,0.000000
1.907420,0.068800,0.000000,0.000000,0.000000,0.000000,0.000000
1.917420,0.069600,0.000000,0.000000,0.000000,0.000000,0.000000
1.927420,0.069600,0.000000,0.000000,0.000000,0.000000,0.000000
1.937420,0.071200,0.000000,0.000000,0.000000,0.000000,0.000000
1.947420,0.071200,0.000000,0.000000,0.000000,0.000000,0.000000
1.957420,0.071200,0.000000,0.000000,0.000000,0.000000,0.000000
1.967420,0.071200,0.000000,0.000000,0.000000,0.000000,0.000000
1.977420,0.072800,0.000000,0.000000,0.000000,0.000000,0.000000
1.987420,0.072800,0.000000,0.000000,0.000000,0.000000,0.000000
1.997420,0.072800,0.000000,0.000000,0.000000,0.000000,0.000000
2.007420,0.072800,0.000000,0.000000,0.000000,0.000000,0.000000
2.017420,0.073600,0.000000,0.000000,0.000000,0.000000,0.000000
2.027420,0.073600,0.000000,0.000000,0.000000,0.000000,0.000000
2.037420,0.075200,0.000000,0.000000,0.000000,0.000000,0.000000
2.047420,0.075200,0.000000,0.000000,0.000000,0.000000,0.000000
2.057420,0.075200,0.000000,0.000000,0.000000,0.000000,0.000000
2.067420,0.075200,0.000000,0.000000,0.000000,0.000000,0.000000
2.077420,0.075200,0.000000,0.000000,0.000000,0.000000,0.000000
2.087420,0.076000,0.000000,0.000000,0.000000,0.000000,0.000000
2.097420,0.076800,0.000000,0.000000,0.000000,0.000000,0.000000
2.107420,0.076800,0.000000,0.000000,0.000000,0.000000,0.000000
2.117420,0.078400,0.000000,0.000000,0.000000,0.000000,0.000000
2.127420,0.078400,0.000000,0.000000,0.000000,0.000000,0.000000
2.137420,0.078400,0.000000,0.000000,0.000000,0.000000,0.000000
2.147420,0.078400,0.000000,0.000000,0.000000,0.000000,0.000000
2.157420,0.080000,0.000000,0.000000,0.000000,0.000000,0.000000
2.167420,0.080000,0.000000,0.000000,0.000000,0.000000,0.000000
2.177420,0.080000,0.000000,0.000000,0.000000,0.000000,0.000000
2.187420,0.080000,0.000000,0.000000,0.000000,0.000000,0.000000
2.197420,0.080800,0.000000,0.000000,0.000000,0.000000,0.000000
2.207420,0.080800,0.000000,0.000000,0.000000,0.000000,0.000000
2.217420,0.080800,0.000000,0.000000,0.000000,0.000000,0.000000
2.227420,0.082400,0.000000,0.000000,0.000000,0.000000,0.000000
2.237420,0.082400,0.000000,0.000000,0.000000,0.000000,0.000000
2.247420,0.082400,0.000000,0.000000,0.000000,0.000000,0.000000
2.257420,0.082400,0.000000,0.000000,0.000000,0.000000,0.000000
2.267420,0.084000,0.000000,0.000000,0.000000,0.000000,0.000000
2.277420,0.084000,0.000000,0.000000,0.000000,0.000000,0.000000
2.287420,0.084000,0.000000,0.000000,0.000000,0.000000,0.000000
2.297420,0.084800,0.000000,0.000000,0.000000,0.000000,0.000000
2.307420,0.084800,0.000000,0.000000,0.000000,0.000000,0.000000
2.317420,0.085600,0.000000,0.000000,0.000000,0.000000,0.000000
2.327420,0.085600,0.000000,0.000000,0.000000,0.000000,0.000000
2.337420,0.087200,0.000000,0.000000,0.000000,0.000000,0.000000
2.347420,0.087200,0.000000,0.000000,0.000000,0.000000,0.000000
2.357420,0.087200,0.000000,0.000000,0.000000,0.000000,0.000000
2.367420,0.087200,0.000000,0.000000,0.000000,0.000000,0.000000
2.377420,0.088800,0.000000,0.000000,0.000000,0.000000,0.000000
2.387420,0.088800,0.000000,0.000000,0.000000,0.000000,0.000000
2.397420,0.088800,0.000000,0.000000,0.000000,0.000000,0.000000
2.407420,0.088800,0.000000,0.000000,0.000000,0.000000,0.000000
2.417420,0.089600,0.000000,0.000000,0.000000,0.000000,0.000000
2.427420,0.089600,0.000000,0.000000,0.000000,0.000000,0.000000
2.437420,0.089600,0.000000,0.000000,0.000000,0.000000,0.000000
2.447420,0.090400,0.000000,0.000000,0.000000,0.000000,0.000000
2.457420,0.090400,0.000000,0.000000,0.000000,0.000000,0.000000
2.467420,0.092000,0.000000,0.000000,0.000000,0.000000,0.000000
2.477420,0.092000,0.000000,0.000000,0.000000,0.000000,0.000000
2.487420,0.092000,0.000000,0.000000,0.000000,0.000000,0.000000
2.497420,0.092800,0.000000,0.000000,0.000000,0.000000,0.000000
2.507420,0.092800,0.000000,0.000000,0.000000,0.000000,0.000000
2.517420,0.094400,0.000000,0.000000,0.000000,0.000000,0.000000
2.527420,0.094400,0.000000,0.000000,0.000000,0.000000,0.000000
2.537420,0.094400,0.000000,0.000000,0.000000,0.000000,0.000000
2.547420,0.094400,0.000000,0.000000,0.000000,0.000000,0.000000
2.557420,0.095200,0.000000,0.000000,0.000000,0.000000,0.000000
2.567420,0.095200,0.000000,0.000000,0.000000,0.000000,0.000000
2.577420,0.096800,0.000000,0.000000,0.000000,0.000000,0.000000
2.587420,0.096800,0.000000,0.000000,0.000000,0.000000,0.000000
2.597420,0.096800,0.000000,0.000000,0.000000,0.000000,0.000000
2.607420,0.096800,0.000000,0.000000,0.000000,0.000000,0.000000
2.617420,0.098400,0.000000,0.000000,0.000000,0.000000,0.000000
2.627420,0.098400,0.000000,0.000000,0.000000,0.000000,0.000000
2.637420,0.098400,0.000000,0.000000,0.000000,0.000000,0.000000
2.647420,0.098400,0.000000,0.000000,0.000000,0.000000,0.000000
2.657420,0.099200,0.000000,0.000000,0.000000,0.000000,0.000000
2.667420,0.099200,0.000000,0.000000,0.000000,0.000000,0.000000
2.677420,0.099200,0.000000,0.000000,0.000000,0.000000,0.000000
2.687420,0.100800,0.000000,0.000000,0.000000,0.000000,0.000000
2.697420,0.100800,0.000000,0.000000,0.000000,0.000000,0.000000
2.707420,0.100800,0.000000,0.000000,0.000000,0.000000,0.000000
2.717420,0.101600,0.000000,0.000000,0.000000,0.000000,0.000000
2.727420,0.101600,0.000000,0.000000,0.000000,0.000000,0.000000
2.737420,0.101600,0.000000,0.000000,0.000000,0.000000,0.000000
2.747420,0.103200,0.000000,0.000000,0.000000,0.000000,0.000000
2.757420,0.103200,0.000000,0.000000,0.000000,0.000000,0.000000
2.767420,0.103200,0.000000,0.000000,0.000000,0.000000,0.000000
2.777420,0.104000,0.000000,0.000000,0.000000,0.000000,0.000000
2.787420,0.104000,0.000000,0.000000,0.000000,0.000000,0.000000
2.797420,0.105600,0.000000,0.000000,0.000000,0.000000,0.000000
2.807420,0.105600,0.000000,0.000000,0.000000,0.000000,0.000000
2.817420,0.105600,0.000000,0.000000,0.000000,0.000000,0.000000
2.827420,0.105600,0.000000,0.000000,0.000000,0.000000,0.000000
2.837420,0.106400,0.000000,0.000000,0.000000,0.000000,0.000000
2.847420,0.106400,0.000000,0.000000,0.000000,0.000000,0.000000
2.857420,0.106400,0.000000,0.000000,0.000000,0.000000,0.000000
2.867420,0.107200,0.000000,0.000000,0.000000,0.000000,0.000000
2.877420,0.108800,0.000000,0.000000,0.000000,0.000000,0.000000
2.887420,0.108800,0.000000,0.000000,0.000000,0.000000,0.000000
2.897420,0.108800,0.000000,0.000000,0.000000,0.000000,0.000000
2.907420,0.108800,0.000000,0.000000,0.000000,0.000000,0.000000
2.917420,0.108800,0.000000,0.000000,0.000000,0.000000,0.000000
2.927420,0.109600,0.000000,0.000000,0.000000,0.000000,0.000000
2.937420,0.111200,0.000000,0.000000,0.000000,0.000000,0.000000
2.947420,0.111200,0.000000,0.000000,0.000000,0.000000,0.000000
2.957420,0.111200,0.000000,0.000000,0.000000,0.000000,0.000000
2.967420,0.111200,0.000000,0.000000,0.000000,0.000000,0.000000
2.977420,0.111200,0.000000,0.000000,0.000000,0.000000,0.000000
2.987420,0.112800,0.000000,0.000000,0.000000,0.000000,0.000000
2.997420,0.112800,0.000000,0.000000,0.000000,0.000000,0.000000
3.007420,0.112800,0.000000,0.000000,0.000000,0.000000,0.000000
3.017420,0.112800,0.000000,0.000000,0.000000,0.000000,0.000000
3.027420,0.113600,0.000000,0.000000,0.000000,0.000000,0.000000
3.037420,0.115200,0.000000,0.000000,0.000000,0.000000,0.000000
3.047420,0.115200,0.000000,0.000000,0.000000,0.000000,0.000000
3.057420,0.115200,0.000000,0.000000,0.000000,0.000000,0.000000
3.067420,0.115200,0.000000,0.000000,0.000000,0.000000,0.000000
3.077420,0.116800,0.000000,0.000000,0.000000,0.000000,0.000000
3.087420,0.116800,0.000000,0.000000,0.000000,0.000000,0.000000
3.097420,0.116800,0.000000,0.000000,0.000000,0.000000,0.000000
3.107420,0.116800,0.000000,0.000000,0.000000,0.000000,0.000000
3.117420,0.117600,0.000000,0.000000,0.000000,0.000000,0.000000
3.127420,0.117600,0.000000,0.000000,0.000000,0.000000,0.000000
3.137420,0.117600,0.000000,0.000000,0.000000,0.000000,0.000000
3.147420,0.119200,0.000000,0.000000,0.000000,0.000000,0.000000
3.157420,0.119200,0.000000,0.000000,0.000000,0.000000,0.000000
3.167420,0.119200,0.000000,0.000000,0.000000,0.000000,0.000000
3.177420,0.120800,0.000000,0.000000,0.000000,0.000000,0.000000
3.187420,0.120800,0.000000,0.000000,0.000000,0.000000,0.000000
3.197420,0.120800,0.000000,0.000000,0.000000,0.000000,0.000000
3.207420,0.120800,0.000000,0.000000,0.000000,0.000000,0.000000
3.217420,0.120800,0.000000,0.000000,0.000000,0.000000,0.000000
3.227420,0.121600,0.000000,0.000000,0.000000,0.000000,0.000000
3.237420,0.121600,0.000000,0.000000,0.000000,0.000000,0.000000
3.247420,0.123200,0.000000,0.000000,0.000000,0.000000,0.000000
3.257420,0.123200,0.000000,0.000000,0.000000,0.000000,0.000000
3.267420,0.123200,0.000000,0.000000,0.000000,0.000000,0.000000
3.277420,0.124000,0.000000,0.000000,0.000000,0.000000,0.000000
3.287420,0.124000,0.000000,0.000000,0.000000,0.000000,0.000000
3.297420,0.125600,0.000000,0.000000,0.000000,0.000000,0.000000
3.307420,0.125600,0.000000,0.000000,0.000000,0.000000,0.000000
3.317420,0.125600,0.000000,0.000000,0.000000,0.000000,0.000000
3.327420,0.125600,0.000000,0.000000,0.000000,0.000000,0.000000
3.337420,0.126400,0.000000,0.000000,0.000000,0.000000,0.000000
3.347420,0.126400,0.000000,0.000000,0.000000,0.000000,0.000000
3.357420,0.128000,0.000000,0.000000,0.000000,0.000000,0.000000
3.367420,0.128000,0.000000,0.000000,0.000000,0.000000,0.000000
3.377420,0.128000,0.000000,0.000000,0.000000,0.000000,0.000000
3.387420,0.128000,0.000000,0.000000,0.000000,0.000000,0.000000
3.397420,0.128800,0.000000,0.000000,0.000000,0.000000,0.000000
3.407420,0.128800,0.000000,0.000000,0.000000,0.000000,0.000000
3.417420,0.130400,0.000000,0.000000,0.000000,0.000000,0.000000
3.427420,0.130400,0.000000,0.000000,0.000000,0.000000,0.000000
3.437420,0.130400,0.000000,0.000000,0.000000,0.000000,0.000000
3.447420,0.130400,0.000000,0.000000,0.000000,0.000000,0.000000
3.457420,0.132000,0.000000,0.000000,0.000000,0.000000,0.000000
3.467420,0.132000,0.000000,0.000000,0.000000,0.000000,0.000000
3.477420,0.132000,0.000000,0.000000,0.000000,0.000000,0.000000
3.487420,0.132000,0.000000,0.000000,0.000000,0.000000,0.000000
3.497420,0.132800,0.000000,0.000000,0.000000,0.000000,0.000000
3.507420,0.132800,0.000000,0.000000,0.000000,0.000000,0.000000
3.517420,0.134400,0.000000,0.000000,0.000000,0.000000,0.000000
3.527420,0.134400,0.000000,0.000000,0.000000,0.000000,0.000000
3.537420,0.134400,0.000000,0.000000,0.000000,0.000000,0.000000
3.547420,0.134400,0.000000,0.000000,0.000000,0.000000,0.000000
3.557420,0.135200,0.000000,0.000000,0.000000,0.000000,0.000000
3.567420,0.135200,0.000000,0.000000,0.000000,0.000000,0.000000
3.577420,0.135200,0.000000,0.000000,0.000000,0.000000,0.000000
3.587420,0.136800,0.000000,0.000000,0.000000,0.000000,0.000000
3.597420,0.136800,0.000000,0.000000,0.000000,0.000000,0.000000
3.607420,0.136800,0.000000,0.000000,0.000000,0.000000,0.000000
3.617420,0.137600,0.000000,0.000000,0.000000,0.000000,0.000000
3.627420,0.137600,0.000000,0.000000,0.000000,0.000000,0.000000
3.637420,0.139200,0.000000,0.000000,0.000000,0.000000,0.000000
3.647420,0.139200,0.000000,0.000000,0.000000,0.000000,0.000000
3.657420,0.139200,0.000000,0.000000,0.000000,0.000000,0.000000
3.667420,0.139200,0.000000,0.000000,0.000000,0.000000,0.000000
3.677420,0.140800,0.000000,0.000000,0.000000,0.000000,0.000000
3.687420,0.140800,0.000000,0.000000,0.000000,0.000000,0.000000
3.697420,0.140800,0.000000,0.000000,0.000000,0.000000,0.000000
3.707420,0.140800,0.000000,0.000000,0.000000,0.000000,0.000000
3.717420,0.141600,0.000000,0.000000,0.000000,0.000000,0.000000
3.727420,0.141600,0.000000,0.000000,0.000000,0.000000,0.000000
3.737420,0.143200,0.000000,0.000000,0.000000,0.000000,0.000000
3.747420,0.143200,0.000000,0.000000,0.000000,0.000000,0.000000
3.757420,0.143200,0.000000,0.000000,0.000000,0.000000,0.000000
3.767420,0.143200,0.000000,0.000000,0.000000,0.000000,0.000000
3.777420,0.144000,0.000000,0.000000,0.000000,0.000000,0.000000
3.787420,0.144000,0.000000,0.000000,0.000000,0.000000,0.000000
3.797420,0.145600,0.000000,0.000000,0.000000,0.000000,0.000000
3.807420,0.145600,0.000000,0.000000,0.000000,0.000000,0.000000
3.817420,0.145600,0.000000,0.000000,0.000000,0.000000,0.000000
3.827420,0.145600,0.000000,0.000000,0.000000,0.000000,0.000000
3.837420,0.146400,0.000000,0.000000,0.000000,0.000000,0.000000
3.847420,0.146400,0.000000,0.000000,0.000000,0.000000,0.000000
3.857420,0.146400,0.000000,0.000000,0.000000,0.000000,0.000000
3.867420,0.148000,0.000000,0.000000,0.000000,0.000000,0.000000
3.877420,0.148000,0.000000,0.000000,0.000000,0.000000,0.000000
3.887420,0.148000,0.000000,0.000000,0.000000,0.000000,0.000000
3.897420,0.149600,0.000000,0.000000,0.000000,0.000000,0.000000
3.907420,0.149600,0.000000,0.000000,0.000000,0.000000,0.000000
3.917420,0.149600,0.000000,0.000000,0.000000,0.000000,0.000000
3.927420,0.149600,0.000000,0.000000,0.000000,0.000000,0.000000
3.937420,0.150400,0.000000,0.000000,0.000000,0.000000,0.000000
3.947420,0.150400,0.000000,0.000000,0.000000,0.000000,0.000000
3.957420,0.150400,0.000000,0.000000,0.000000,0.000000,0.000000
3.967420,0.152000,0.000000,0.000000,0.000000,0.000000,0.000000
3.977420,0.152000,0.000000,0.000000,0.000000,0.000000,0.000000
3.987420,0.152000,0.000000,0.000000,0.000000,0.000000,0.000000
3.997420,0.152000,0.000000,0.000000,0.000000,0.000000,0.000000
4.007420,0.152800,0.000000,0.000000,0.000000,0.000000,0.000000
4.017420,0.154400,0.000000,0.000000,0.000000,0.000000,0.000000
4.027420,0.154400,0.000000,0.000000,0.000000,0.000000,0.000000
4.037420,0.154400,0.000000,0.000000,0.000000,0.000000,0.000000
4.047420,0.154400,0.000000,0.000000,0.000000,0.000000,0.000000
4.057420,0.154400,0.000000,0.000000,0.000000,0.000000,0.000000
4.067420,0.155200,0.000000,0.000000,0.000000,0.000000,0.000000
4.077420,0.156800,0.000000,0.000000,0.000000,0.000000,0.000000
4.087420,0.156800,0.000000,0.000000,0.000000,0.000000,0.000000
4.097420,0.156800,0.000000,0.000000,0.000000,0.000000,0.000000
4.107420,0.156800,0.000000,0.000000,0.000000,0.000000,0.000000
4.117420,0.157600,0.000000,0.000000,0.000000,0.000000,0.000000
4.127420,0.157600,0.000000,0.000000,0.000000,0.000000,0.000000
4.137420,0.159200,0.000000,0.000000,0.000000,0.000000,0.000000
4.147420,0.159200,0.000000,0.000000,0.000000,0.000000,0.000000
4.157420,0.159200,0.000000,0.000000,0.000000,0.000000,0.000000
4.167420,0.159200,0.000000,0.000000,0.000000,0.000000,0.000000
4.177420,0.160800,0.000000,0.000000,0.000000,0.000000,0.000000
4.187420,0.160800,0.000000,0.000000,0.000000,0.000000,0.000000
4.197420,0.160800,0.000000,0.000000,0.000000,0.000000,0.000000
4.207420,0.160800,0.000000,0.000000,0.000000,0.000000,0.000000
4.217420,0.161600,0.000000,0.000000,0.000000,0.000000,0.000000
4.227420,0.161600,0.000000,0.000000,0.000000,0.000000,0.000000
4.237420,0.162400,0.000000,0.000000,0.000000,0.000000,0.000000
4.247420,0.162400,0.000000,0.000000,0.000000,0.000000,0.000000
4.257420,0.164000,0.000000,0.000000,0.000000,0.000000,0.000000
4.267420,0.164000,0.000000,0.000000,0.000000,0.000000,0.000000
4.277420,0.164000,0.000000,0.000000,0.000000,0.000000,0.000000
4.287420,0.164000,0.000000,0.000000,0.000000,0.000000,0.000000
4.297420,0.164800,0.000000,0.000000,0.000000,0.000000,0.000000
4.307420,0.164800,0.000000,0.000000,0.000000,0.000000,0.000000
4.317420,0.166400,0.000000,0.000000,0.000000,0.000000,0.000000
4.327420,0.166400,0.000000,0.000000,0.000000,0.000000,0.000000
4.337420,0.166400,0.000000,0.000000,0.000000,0.000000,0.000000
4.347420,0.166400,0.000000,0.000000,0.000000,0.000000,0.000000
4.357420,0.168000,0.000000,0.000000,0.000000,0.000000,0.000000
4.367420,0.168000,0.000000,0.000000,0.000000,0.000000,0.000000
4.377420,0.168000,0.000000,0.000000,0.000000,0.000000,0.000000
4.387420,0.168000,0.000000,0.000000,0.000000,0.000000,0.000000
4.397420,0.168800,0.000000,0.000000,0.000000,0.000000,0.000000
4.407420,0.168800,0.000000,0.000000,0.000000,0.000000,0.000000
4.417420,0.169600,0.000000,0.000000,0.000000,0.000000,0.000000
4.427420,0.169600,0.000000,0.000000,0.000000,0.000000,0.000000
4.437420,0.171200,0.000000,0.000000,0.000000,0.000000,0.000000
4.447420,0.171200,0.000000,0.000000,0.000000,0.000000,0.000000
4.457420,0.171200,0.000000,0.000000,0.000000,0.000000,0.000000
4.467420,0.171200,0.000000,0.000000,0.000000,0.000000,0.000000
4.477420,0.172000,0.000000,0.000000,0.000000,0.000000,0.000000
4.487420,0.172000,0.000000,0.000000,0.000000,0.000000,0.000000
4.497420,0.173600,0.000000,0.000000,0.000000,0.000000,0.000000
4.507420,0.173600,0.000000,0.000000,0.000000,0.000000,0.000000
4.517420,0.173600,0.000000,0.000000,0.000000,0.000000,0.000000
4.527420,0.173600,0.000000,0.000000,0.000000,0.000000,0.000000
4.537420,0.175200,0.000000,0.000000,0.000000,0.000000,0.000000
4.547420,0.175200,0.000000,0.000000,0.000000,0.000000,0.000000
4.557420,0.175200,0.000000,0.000000,0.000000,0.000000,0.000000
4.567420,0.175200,0.000000,0.000000,0.000000,0.000000,0.000000
4.577420,0.176000,0.000000,0.000000,0.000000,0.000000,0.000000
4.587420,0.176000,0.000000,0.000000,0.000000,0.000000,0.000000
4.597420,0.177600,0.000000,0.000000,0.000000,0.000000,0.000000
4.607420,0.177600,0.000000,0.000000,0.000000,0.000000,0.000000
4.617420,0.177600,0.000000,0.000000,0.000000,0.000000,0.000000
4.627420,0.177600,0.000000,0.000000,0.000000,0.000000,0.000000
4.637420,0.178400,0.000000,0.000000,0.000000,0.000000,0.000000
4.647420,0.178400,0.000000,0.000000,0.000000,0.000000,0.000000
4.657420,0.180000,0.000000,0.000000,0.000000,0.000000,0.000000
4.667420,0.180000,0.000000,0.000000,0.000000,0.000000,0.000000
4.677420,0.180000,0.000000,0.000000,0.000000,0.000000,0.000000
4.687420,0.180000,0.000000,0.000000,0.000000,0.000000,0.000000
4.697420,0.180800,0.000000,0.000000,0.000000,0.000000,0.000000
4.707420,0.180800,0.000000,0.000000,0.000000,0.000000,0.000000
4.717420,0.182400,0.000000,0.000000,0.000000,0.000000,0.000000
4.727420,0.182400,0.000000,0.000000,0.000000,0.000000,0.000000
4.737420,0.182400,0.000000,0.000000,0.000000,0.000000,0.000000
4.747420,0.182400,0.000000,0.000000,0.000000,0.000000,0.000000
4.757420,0.183200,0.000000,0.000000,0.000000,0.000000,0.000000
4.767420,0.183200,0.000000,0.000000,0.000000,0.000000,0.000000
4.777420,0.183200,0.000000,0.000000,0.000000,0.000000,0.000000
4.787420,0.184800,0.000000,0.000000,0.000000,0.000000,0.000000
4.797420,0.184800,0.000000,0.000000,0.000000,0.000000,0.000000
4.807420,0.184800,0.000000,0.000000,0.000000,0.000000,0.000000
4.817420,0.185600,0.000000,0.000000,0.000000,0.000000,0.000000
4.827420,0.185600,0.000000,0.000000,0.000000,0.000000,0.000000
4.837420,0.187200,0.000000,0.000000,0.000000,0.000000,0.000000
4.847420,0.187200,0.000000,0.000000,0.000000,0.000000,0.000000
4.857420,0.187200,0.000000,0.000000,0.000000,0.000000,0.000000
4.867420,0.187200,0.000000,0.000000,0.000000,0.000000,0.000000
4.877420,0.188800,0.000000,0.000000,0.000000,0.000000,0.000000
4.887420,0.188800,0.000000,0.000000,0.000000,0.000000,0.000000
4.897420,0.188800,0.000000,0.000000,0.000000,0.000000,0.000000
4.907420,0.188800,0.000000,0.000000,0.000000,0.000000,0.000000
4.917420,0.189600,0.000000,0.000000,0.000000,0.000000,0.000000
4.927420,0.189600,0.000000,0.000000,0.000000,0.000000,0.000000
4.937420,0.191200,0.000000,0.000000,0.000000,0.000000,0.000000
4.947420,0.191200,0.000000,0.000000,0.000000,0.000000,0.000000
4.957420,0.191200,0.000000,0.000000,0.000000,0.000000,0.000000
4.967420,0.191200,0.000000,0.000000,0.000000,0.000000,0.000000
4.977420,0.191200,0.000000,0.000000,0.000000,0.000000,0.000000
4.987420,0.192000,0.000000,0.000000,0.000000,0.000000,0.000000
4.997420,0.192000,0.000000,0.000000,0.000000,0.000000,0.000000
5.007420,0.193600,0.000000,0.000000,0.000000,0.000000,0.000000
5.017420,0.193600,0.000000,0.000000,0.000000,0.000000,0.000000
5.027420,0.193600,0.000000,0.000000,0.000000,0.000000,0.000000
5.037420,0.194400,0.000000,0.000000,0.000000,0.000000,0.000000
5.047420,0.194400,0.000000,0.000000,0.000000,0.000000,0.000000
5.057420,0.196000,0.000000,0.000000,0.000000,0.000000,0.000000
5.067420,0.196000,0.000000,0.000000,0.000000,0.000000,0.000000
5.077420,0.196000,0.000000,0.000000,0.000000,0.000000,0.000000
5.087420,0.196000,0.000000,0.000000,0.000000,0.000000,0.000000
5.097420,0.196800,0.000000,0.000000,0.000000,0.000000,0.000000
5.107420,0.196800,0.000000,0.000000,0.000000,0.000000,0.000000
5.117420,0.198400,0.000000,0.000000,0.000000,0.000000,0.000000
5.127420,0.198400,0.000000,0.000000,0.000000,0.000000,0.000000
5.137420,0.198400,0.000000,0.000000,0.000000,0.000000,0.000000
5.147420,0.198400,0.000000,0.000000,0.000000,0.000000,0.000000
5.157420,0.199200,0.000000,0.000000,0.000000,0.000000,0.000000
5.167420,0.199200,0.000000,0.000000,0.000000,0.000000,0.000000
5.177420,0.200000,0.000000,0.000000,0.000000,0.000000,0.000000
5.187420,0.200000,0.000000,0.000000,0.000000,0.000000,0.000000
5.197420,0.200000,0.000000,0.000000,0.000000,0.000000,0.000000
5.207420,0.200000,0.000000,0.000000,0.000000,0.000000,0.000000
5.217420,0.200000,0.000000,0.000000,0.000000,0.000000,0.000000
5.227420,0.200000,0.000000,0.000000,0.000000,0.000000,0.000000
5.237420,0.200000,0.000000,0.000000,0.000000,0.000000,0.000000
5.247420,0.200000,0.000000,0.000000,0.000000,0.000000,0.000000
5.257420,0.200000,0.000000,0.000000,0.000000,0.000000,0.000000
5.267420,0.200000,0.000000,0.000000,0.000000,0.000000,0.000000
5.277420,0.200000,0.000000,0.000000,0.000000,0.000000,0.000000
5.287420,0.200000,0.000000,0.000000,0.000000,0.000000,0.000000
5.297420,0.200000,0.000000,0.000000,0.000000,0.000000,0.000000
5.307420,0.200000,0.000000,0.000000,0.000000,0.000000,0.000000
5.317420,0.200000,0.000000,0.000000,0.000000,0.000000,0.000000
5.327420,0.200000,0.000000,0.000000,0.000000,0.000000,0.000000
5.337420,0.200000,0.000000,0.000000,0.000000,0.000000,0.000000
5.347420,0.200000,0.000000,0.000000,0.000000,0.000000,0.000000
5.357420,0.200000,0.000000,0.000000,0.000000,0.000000,0.000000
5.367420,0.200000,0.000000,0.000000,0.000000,0.000000,0.000000
5.377420,0.200000,0.000000,0.000000,0.000000,0.000000,0.000000
5.387420,0.200000,0.000000,0.000000,0.000000,0.000000,0.000000
5.397420,0.200000,0.000000,0.000000,0.000000,0.000000,0.000000
5.407420,0.200000,0.000000,0.000000,0.000000,0.000000,0.000000
5.417420,0.200000,0.000000,0.000000,0.000000,0.000000,0.000000
5.427420,0.200000,0.000000,0.000000,0.000000,0.000000,0.000000
5.437420,0.200000,0.000000,0.000000,0.000000,0.000000,0.000000
5.447420,0.200000,0.000000,0.000000,0.000000,0.000000,0.000000
5.457420,0.200000,0.000000,0.000000,0.000000,0.000000,0.000000
5.467420,0.200000,0.000000,0.000000,0.000000,0.000000,0.000000
5.477420,0.200000,0.000000,0.000000,0.000000,0.000000,0.000000
5.487420,0.200000,0.000000,0.000000,0.000000,0.000000,0.000000
5.497420,0.200000,0.000000,0.000000,0.000000,0.000000,0.000000
5.507420,0.200000,0.000000,0.000000,0.000000,0.000000,0.000000
5.517420,0.200000,0.000000,0.000000,0.000000,0.000000,0.000000
5.527420,0.200000,0.000000,0.000000,0.000000,0.000000,0.000000
5.537420,0.200000,0.000000,0.000000,0.000000,0.000000,0.000000
5.547420,0.200000,0.000000,0.000000,0.000000,0.000000,0.000000
5.557420,0.200000,0.000000,0.000000,0.000000,0.000000,0.000000
5.567420,0.200000,0.000000,0.000000,0.000000,0.000000,0.000000
5.577420,0.200000,0.000000,0.000000,0.000000,0.000000,0.000000
5.587420,0.200000,0.000000,0.000000,0.000000,0.000000,0.000000
5.597420,0.200000,0.000000,0.000000,0.000000,0.000000,0.000000
5.607420,0.200000,0.000000,0.000000,0.000000,0.000000,0.000000
5.617420,0.200000,0.000000,0.000000,0.000000,0.000000,0.000000
5.627420,0.200000,0.000000,0.000000,0.000000,0.000000,0.000000
5.637420,0.200000,0.000000,0.000000,0.000000,0.000000,0.000000
5.647420,0.200000,0.000000,0.000000,0.000000,0.000000,0.000000
5.657420,0.200000,0.000000,0.000000,0.000000,0.000000,0.000000
5.667420,0.200000,0.000000,0.000000,0.000000,0.000000,0.000000
5.677420,0.200000,0.000000,0.000000,0.000000,0.000000,0.000000
5.687420,0.200000,0.000000,0.000000,0.000000,0.000000,0.000000
5.697420,0.200000,0.000000,0.000000,0.000000,0.000000,0.000000
5.707420,0.200000,0.000000,0.000000,0.000000,0.000000,0.000000
5.717420,0.200000,0.000000,0.000000,0.000000,0.000000,0.000000
5.727420,0.200000,0.000000,0.000000,0.000000,0.000000,0.000000
5.737420,0.200000,0.000000,0.000000,0.000000,0.000000,0.000000
5.747420,0.200000,0.000000,0.000000,0.000000,0.000000,0.000000
5.757420,0.200000,0.000000,0.000000,0.000000,0.000000,0.000000
5.767420,0.200000,0.000000,0.000000,0.000000,0.000000,0.000000
5.777420,0.200000,0.000000,0.000000,0.000000,0.000000,0.000000
5.787420,0.200000,0.000000,0.000000,0.000000,0.000000,0.000000
5.797420,0.200000,0.000000,0.000000,0.000000,0.000000,0.000000
5.807420,0.200000,0.000000,0.000000,0.000000,0.000000,0.000000
5.817420,0.200000,0.000000,0.000000,0.000000,0.000000,0.000000
5.827420,0.200000,0.000000,0.000000,0.000000,0.000000,0.000000
5.837420,0.200000,0.000000,0.000000,0.000000,0.000000,0.000000
5.847420,0.200000,0.000000,0.000000,0.000000,0.000000,0.000000
5.857420,0.200000,0.000000,0.000000,0.000000,0.000000,0.000000
5.867420,0.200000,0.000000,0.000000,0.000000,0.000000,0.000000
5.877420,0.200000,0.000000,0.000000,0.000000,0.000000,0.000000
5.887420,0.200000,0.000000,0.000000,0.000000,0.000000,0.000000
5.897420,0.200000,0.000000,0.000000,0.000000,0.000000,0.000000
5.907420,0.200000,0.000000,0.000000,0.000000,0.000000,0.000000
5.917420,0.200000,0.000000,0.000000,0.000000,0.000000,0.000000
5.927420,0.200000,0.000000,0.000000,0.000000,0.000000,0.000000
5.937420,0.200000,0.000000,0.000000,0.000000,0.000000,0.000000
5.947420,0.200000,0.000000,0.000000,0.000000,0.000000,0.000000
5.957420,0.200000,0.000000,0.000000,0.000000,0.000000,0.000000
5.967420,0.200000,0.000000,0.000000,0.000000,0.000000,0.000000
5.977420,0.200000,0.000000,0.000000,0.000000,0.000000,0.000000
5.987420,0.200000,0.000000,0.000000,0.000000,0.000000,0.000000
5.997420,0.200000,0.000000,0.000000,0.000000,0.000000,0.000000
6.007420,0.200000,0.000000,0.000000,0.000000,0.000000,0.000000
6.017420,0.200000,0.000000,0.000000,0.000000,0.000000,0.000000
6.027420,0.200000,0.000000,0.000000,0.000000,0.000000,0.000000
6.037420,0.200000,0.000000,0.000000,0.000000,0.000000,0.000000
6.047420,0.200000,0.000000,0.000000,0.000000,0.000000,0.000000
6.057420,0.200000,0.000000,0.000000,0.000000,0.000000,0.000000
6.067420,0.200000,0.000000,0.000000,0.000000,0.000000,0.000000
6.077420,0.200000,0.000000,0.000000,0.000000,0.000000,0.000000
6.087420,0.200000,0.000000,0.000000,0.000000,0.000000,0.000000
6.097420,0.200000,0.000000,0.000000,0.000000,0.000000,0.000000
6.107420,0.200000,0.000000,0.000000,0.000000,0.000000,0.000000
6.117420,0.200000,0.000000,0.000000,0.000000,0.000000,0.000000
6.127420,0.200000,0.000000,0.000000,0.000000,0.000000,0.000000
6.137420,0.200000,0.000000,0.000000,0.000000,0.000000,0.000000
6.147420,0.200000,0.000000,0.000000,0.000000,0.000000,0.000000
6.157420,0.200000,0.000000,0.000000,0.000000,0.000000,0.000000
6.167420,0.200000,0.000000,0.000000,0.000000,0.000000,0.000000
6.177420,0.200000,0.000000,0.000000,0.000000,0.000000,0.000000
6.187420,0.200000,0.000000,0.000000,0.000000,0.000000,0.000000
6.197420,0.200000,0.000000,0.000000,0.000000,0.000000,0.000000
6.207420,0.200000,0.000000,0.000000,0.000000,0.000000,0.000000
6.217420,0.200000,0.000000,0.000000,0.000000,0.000000,0.000000
6.227420,0.200000,0.000000,0.000000,0.000000,0.000000,0.000000
6.237420,0.200000,0.000000,0.000000,0.000000,0.000000,0.000000
6.247420,0.200000,0.000000,0.000000,0.000000,0.000000,0.000000
6.257420,0.200000,0.000000,0.000000,0.000000,0.000000,0.000000
6.267420,0.200000,0.000000,0.000000,0.000000,0.000000,0.000000
6.277420,0.200000,0.000000,0.000000,0.000000,0.000000,0.000000
6.287420,0.200000,0.000000,0.000000,0.000000,0.000000,0.000000
6.297420,0.200000,0.000000,0.000000,0.000000,0.000000,0.000000
6.307420,0.200000,0.000000,0.000000,0.000000,0.000000,0.000000
6.317420,0.200000,0.000000,0.000000,0.000000,0.000000,0.000000
6.327420,0.200000,0.000000,0.000000,0.000000,0.000000,0.000000
6.337420,0.200000,0.000000,0.000000,0.000000,0.000000,0.000000
6.347420,0.200000,0.000000,0.000000,0.000000,0.000000,0.000000
6.357420,0.200000,0.000000,0.000000,0.000000,0.000000,0.000000
6.367420,0.200000,0.000000,0.000000,0.000000,0.000000,0.000000
6.377420,0.200000,0.000000,0.000000,0.000000,0.000000,0.000000
6.387420,0.200000,0.000000,0.000000,0.000000,0.000000,0.000000
6.397420,0.200000,0.000000,0.000000,0.000000,0.000000,0.000000
6.407420,0.200000,0.000000,0.000000,0.000000,0.000000,0.000000
6.417420,0.200000,0.000000,0.000000,0.000000,0.000000,0.000000
6.427420,0.200000,0.000000,0.000000,0.000000,0.000000,0.000000
6.437420,0.200000,0.000000,0.000000,0.000000,0.000000,0.000000
6.447420,0.200000,0.000000,0.000000,0.000000,0.000000,0.000000
6.457420,0.200000,0.000000,0.000000,0.000000,0.000000,0.000000
6.467420,0.200000,0.000000,0.000000,0.000000,0.000000,0.000000
6.477420,0.200000,0.000000,0.000000,0.000000,0.000000,0.000000
6.487420,0.200000,0.000000,0.000000,0.000000,0.000000,0.000000
6.497420,0.200000,0.000000,0.000000,0.000000,0.000000,0.000000
6.507420,0.200000,0.000000,0.000000,0.000000,0.000000,0.000000
6.517420,0.200000,0.000000,0.000000,0.000000,0.000000,0.000000
6.527420,0.200000,0.000000,0.000000,0.000000,0.000000,0.000000
6.537420,0.200000,0.000000,0.000000,0.000000,0.000000,0.000000
6.547420,0.200000,0.000000,0.000000,0.000000,0.000000,0.000000
6.557420,0.200000,0.000000,0.000000,0.000000,0.000000,0.000000
6.567420,0.200000,0.000000,0.000000,0.000000,0.000000,0.000000
6.577420,0.200000,0.000000,0.000000,0.000000,0.000000,0.000000
6.587420,0.200000,0.000000,0.000000,0.000000,0.000000,0.000000
6.597420,0.200000,0.000000,0.000000,0.000000,0.000000,0.000000
6.607420,0.200000,0.000000,0.000000,0.000000,0.000000,0.000000
6.617420,0.200000,0.000000,0.000000,0.000000,0.000000,0.000000
6.627420,0.200000,0.000000,0.000000,0.000000,0.000000,0.000000
6.637420,0.200000,0.000000,0.000000,0.000000,0.000000,0.000000
6.647420,0.200000,0.000000,0.000000,0.000000,0.000000,0.000000
6.657420,0.200000,0.000000,0.000000,0.000000,0.000000,0.000000
6.667420,0.200000,0.000000,0.000000,0.000000,0.000000,0.000000
6.677420,0.200000,0.000000,0.000000,0.000000,0.000000,0.000000
6.687420,0.200000,0.000000,0.000000,0.000000,0.000000,0.000000
6.697420,0.200000,0.000000,0.000000,0.000000,0.000000,0.000000
6.707420,0.200000,0.000000,0.000000,0.000000,0.000000,0.000000
6.717420,0.200000,0.000000,0.000000,0.000000,0.000000,0.000000
6.727420,0.200000,0.000000,0.000000,0.000000,0.000000,0.000000
6.737420,0.200000,0.000000,0.000000,0.000000,0.000000,0.000000
6.747420,0.200000,0.000000,0.000000,0.000000,0.000000,0.000000
6.757420,0.200000,0.000000,0.000000,0.000000,0.000000,0.000000
6.767420,0.200000,0.000000,0.000000,0.000000,0.000000,0.000000
6.777420,0.200000,0.000000,0.000000,0.000000,0.000000,0.000000
6.787420,0.200000,0.000000,0.000000,0.000000,0.000000,0.000000
6.797420,0.200000,0.000000,0.000000,0.000000,0.000000,0.000000
6.807420,0.200000,0.000000,0.000000,0.000000,0.000000,0.000000
6.817420,0.200000,0.000000,0.000000,0.000000,0.000000,0.000000
6.827420,0.200000,0.000000,0.000000,0.000000,0.000000,0.000000
6.837420,0.200000,0.000000,0.000000,0.000000,0.000000,0.000000
6.847420,0.200000,0.000000,0.000000,0.000000,0.000000,0.000000
6.857420,0.200000,0.000000,0.000000,0.000000,0.000000,0.000000
6.867420,0.200000,0.000000,0.000000,0.000000,0.000000,0.000000
6.877420,0.200000,0.000000,0.000000,0.000000,0.000000,0.000000
6.887420,0.200000,0.000000,0.000000,0.000000,0.000000,0.000000
6.897420,0.200000,0.000000,0.000000,0.000000,0.000000,0.000000
6.907420,0.200000,0.000000,0.000000,0.000000,0.000000,0.000000
6.917420,0.200000,0.000000,0.000000,0.000000,0.000000,0.000000
6.927420,0.200000,0.000000,0.000000,0.000000,0.000000,0.000000
6.937420,0.200000,0.000000,0.000000,0.000000,0.000000,0.000000
6.947420,0.200000,0.000000,0.000000,0.000000,0.000000,0.000000
6.957420,0.200000,0.000000,0.000000,0.000000,0.000000,0.000000
6.967420,0.200000,0.000000,0.000000,0.000000,0.000000,0.000000
6.977420,0.200000,0.000000,0.000000,0.000000,0.000000,0.000000
6.987420,0.200000,0.000000,0.000000,0.000000,0.000000,0.000000
6.997420,0.200000,0.000000,0.000000,0.000000,0.000000,0.000000
7.007420,0.200000,0.000000,0.000000,0.000000,0.000000,0.000000
7.017420,0.200000,0.000000,0.000000,0.000000,0.000000,0.000000
7.027420,0.200000,0.000000,0.000000,0.000000,0.000000,0.000000
7.037420,0.200000,0.000000,0.000000,0.000000,0.000000,0.000000
7.047420,0.200000,0.000000,0.000000,0.000000,0.000000,0.000000
7.057420,0.200000,0.000000,0.000000,0.000000,0.000000,0.000000
7.067420,0.200000,0.000000,0.000000,0.000000,0.000000,0.000000
7.077420,0.200000,0.000000,0.000000,0.000000,0.000000,0.000000
7.087420,0.200000,0.000000,0.000000,0.000000,0.000000,0.000000
7.097420,0.200000,0.000000,0.000000,0.000000,0.000000,0.000000
7.107420,0.200000,0.000000,0.000000,0.000000,0.000000,0.000000
7.117420,0.200000,0.000000,0.000000,0.000000,0.000000,0.000000
7.127420,0.200000,0.000000,0.000000,0.000000,0.000000,0.000000
7.137420,0.200000,0.000000,0.000000,0.000000,0.000000,0.000000
7.147420,0.200000,0.000000,0.000000,0.000000,0.000000,0.000000
7.157420,0.200000,0.000000,0.000000,0.000000,0.000000,0.000000
7.167420,0.200000,0.000000,0.000000,0.000000,0.000000,0.000000
7.177420,0.200000,0.000000,0.000000,0.000000,0.000000,0.000000
7.187420,0.200000,0.000000,0.000000,0.000000,0.000000,0.000000
7.197420,0.200000,0.000000,0.000000,0.000000,0.000000,0.000000
7.207420,0.200000,0.000000,0.000000,0.000000,0.000000,0.000000
7.217420,0.200000,0.000000,0.000000,0.000000,0.000000,0.000000
7.227420,0.200000,0.000000,0.000000,0.000000,0.000000,0.000000
7.237420,0.200000,0.000000,0.000000,0.000000,0.000000,0.000000
7.247420,0.200000,0.000000,0.000000,0.000000,0.000000,0.000000
7.257420,0.200000,0.000000,0.000000,0.000000,0.000000,0.000000
7.267420,0.200000,0.000000,0.000000,0.000000,0.000000,0.000000
7.277420,0.200000,0.000000,0.000000,0.000000,0.000000,0.000000
7.287420,0.200000,0.000000,0.000000,0.000000,0.000000,0.000000
7.297420,0.200000,0.000000,0.000000,0.000000,0.000000,0.000000
7.307420,0.200000,0.000000,0.000000,0.000000,0.000000,0.000000
7.317420,0.200000,0.000000,0.000000,0.000000,0.000000,0.000000
7.327420,0.200000,0.000000,0.000000,0.000000,0.000000,0.000000
7.337420,0.200000,0.000000,0.000000,0.000000,0.000000,0.000000
7.347420,0.200000,0.000000,0.000000,0.000000,0.000000,0.000000
7.357420,0.200000,0.000000,0.000000,0.000000,0.000000,0.000000
7.367420,0.200000,0.000000,0.000000,0.000000,0.000000,0.000000
7.377420,0.200000,0.000000,0.000000,0.000000,0.000000,0.000000
7.387420,0.200000,0.000000,0.000000,0.000000,0.000000,0.000000
7.397420,0.200000,0.000000,0.000000,0.000000,0.000000,0.000000
7.407420,0.200000,0.000000,0.000000,0.000000,0.000000,0.000000
7.417420,0.200000,0.000000,0.000000,0.000000,0.000000,0.000000
7.427420,0.200000,0.000000,0.000000,0.000000,0.000000,0.000000
7.437420,0.200000,0.000000,0.000000,0.000000,0.000000,0.000000
7.447420,0.200000,0.000000,0.000000,0.000000,0.000000,0.000000
7.457420,0.200000,0.000000,0.000000,0.000000,0.000000,0.000000
7.467420,0.200000,0.000000,0.000000,0.000000,0.000000,0.000000
7.477420,0.200000,0.000000,0.000000,0.000000,0.000000,0.000000
7.487420,0.200000,0.000000,0.000000,0.000000,0.000000,0.000000
7.497420,0.200000,0.000000,0.000000,0.000000,0.000000,0.000000
7.507420,0.200000,0.000000,0.000000,0.000000,0.000000,0.000000
7.517420,0.200000,0.000000,0.000000,0.000000,0.000000,0.000000
7.527420,0.200000,0.000000,0.000000,0.000000,0.000000,0.000000
7.537420,0.200000,0.000000,0.000000,0.000000,0.000000,0.000000
7.547420,0.200000,0.000000,0.000000,0.000000,0.000000,0.000000
7.557420,0.200000,0.000000,0.000000,0.000000,0.000000,0.000000
7.567420,0.200000,0.000000,0.000000,0.000000,0.000000,0.000000
7.577420,0.200000,0.000000,0.000000,0.000000,0.000000,0.000000
7.587420,0.200000,0.000000,0.000000,0.000000,0.000000,0.000000
7.597420,0.200000,0.000000,0.000000,0.000000,0.000000,0.000000
7.607420,0.200000,0.000000,0.000000,0.000000,0.000000,0.000000
7.617420,0.200000,0.000000,0.000000,0.000000,0.000000,0.000000
7.627420,0.200000,0.000000,0.000000,0.000000,0.000000,0.000000
7.637420,0.200000,0.000000,0.000000,0.000000,0.000000,0.000000
7.647420,0.200000,0.000000,0.000000,0.000000,0.000000,0.000000
7.657420,0.200000,0.000000,0.000000,0.000000,0.000000,0.000000
7.667420,0.200000,0.000000,0.000000,0.000000,0.000000,0.000000
7.677420,0.200000,0.000000,0.000000,0.000000,0.000000,0.000000
7.687420,0.200000,0.000000,0.000000,0.000000,0.000000,0.000000
7.697420,0.200000,0.000000,0.000000,0.000000,0.000000,0.000000
7.707420,0.200000,0.000000,0.000000,0.000000,0.000000,0.000000
7.717420,0.200000,0.000000,0.000000,0.000000,0.000000,0.000000
7.727420,0.200000,0.000000,0.000000,0.000000,0.000000,0.000000
7.737420,0.200000,0.000000,0.000000,0.000000,0.000000,0.000000
7.747420,0.200000,0.000000,0.000000,0.000000,0.000000,0.000000
7.757420,0.200000,0.000000,0.000000,0.000000,0.000000,0.000000
7.767420,0.200000,0.000000,0.000000,0.000000,0.000000,0.000000
7.777420,0.200000,0.000000,0.000000,0.000000,0.000000,0.000000
7.787420,0.200000,0.000000,0.000000,0.000000,0.000000,0.000000
7.797420,0.200000,0.000000,0.000000,0.000000,0.000000,0.000000
7.807420,0.200000,0.000000,0.000000,0.000000,0.000000,0.000000
7.817420,0.200000,0.000000,0.000000,0.000000,0.000000,0.000000
7.827420,0.200000,0.000000,0.000000,0.000000,0.000000,0.000000
7.837420,0.200000,0.000000,0.000000,0.000000,0.000000,0.000000
7.847420,0.200000,0.000000,0.000000,0.000000,0.000000,0.000000
7.857420,0.200000,0.000000,0.000000,0.000000,0.000000,0.000000
7.867420,0.200000,0.000000,0.000000,0.000000,0.000000,0.000000
7.877420,0.200000,0.000000,0.000000,0.000000,0.000000,0.000000
7.887420,0.200000,0.000000,0.000000,0.000000,0.000000,0.000000
7.897420,0.200000,0.000000,0.000000,0.000000,0.000000,0.000000
7.907420,0.200000,0.000000,0.000000,0.000000,0.000000,0.000000
7.917420,0.200000,0.000000,0.000000,0.000000,0.000000,0.000000
7.927420,0.200000,0.000000,0.000000,0.000000,0.000000,0.000000
7.937420,0.200000,0.000000,0.000000,0.000000,0.000000,0.000000
7.947420,0.200000,0.000000,0.000000,0.000000,0.000000,0.000000
7.957420,0.200000,0.000000,0.000000,0.000000,0.000000,0.000000
7.967420,0.200000,0.000000,0.000000,0.000000,0.000000,0.000000
7.977420,0.200000,0.000000,0.000000,0.000000,0.000000,0.000000
7.987420,0.200000,0.000000,0.000000,0.000000,0.000000,0.000000
7.997420,0.200000,0.000000,0.000000,0.000000,0.000000,0.000000
8.007420,0.200000,0.000000,0.000000,0.000000,0.000000,0.000000
8.017420,0.200000,0.000000,0.000000,0.000000,0.000000,0.000000
8.027420,0.200000,0.000000,0.000000,0.000000,0.000000,0.000000
8.037420,0.200000,0.000000,0.000000,0.000000,0.000000,0.000000
8.047420,0.200000,0.000000,0.000000,0.000000,0.000000,0.000000
8.057420,0.200000,0.000000,0.000000,0.000000,0.000000,0.000000
8.067420,0.200000,0.000000,0.000000,0.000000,0.000000,0.000000
8.077420,0.200000,0.000000,0.000000,0.000000,0.000000,0.000000
8.087420,0.200000,0.000000,0.000000,0.000000,0.000000,0.000000
8.097420,0.200000,0.000000,0.000000,0.000000,0.000000,0.000000
8.107420,0.200000,0.000000,0.000000,0.000000,0.000000,0.000000
8.117420,0.200000,0.000000,0.000000,0.000000,0.000000,0.000000
8.127420,0.200000,0.000000,0.000000,0.000000,0.000000,0.000000
8.137420,0.200000,0.000000,0.000000,0.000000,0.000000,0.000000
8.147420,0.200000,0.000000,0.000000,0.000000,0.000000,0.000000
8.157420,0.200000,0.000000,0.000000,0.000000,0.000000,0.000000
8.167420,0.200000,0.000000,0.000000,0.000000,0.000000,0.000000
8.177420,0.200000,0.000000,0.000000,0.000000,0.000000,0.000000
8.187420,0.200000,0.000000,0.000000,0.000000,0.000000,0.000000
8.197420,0.200000,0.000000,0.000000,0.000000,0.000000,0.000000
8.207420,0.200000,0.000000,0.000000,0.000000,0.000000,0.000000
8.217420,0.200000,0.000000,0.000000,0.000000,0.000000,0.000000
8.227420,0.200000,0.000000,0.000000,0.000000,0.000000,0.000000
8.237420,0.200000,0.000000,0.000000,0.000000,0.000000,0.000000
8.247420,0.200000,0.000000,0.000000,0.000000,0.000000,0.000000
8.257420,0.200000,0.000000,0.000000,0.000000,0.000000,0.000000
8.267420,0.200000,0.000000,0.000000,0.000000,0.000000,0.000000
8.277420,0.200000,0.000000,0.000000,0.000000,0.000000,0.000000
8.287420,0.200000,0.000000,0.000000,0.000000,0.000000,0.000000
8.297420,0.200000,0.000000,0.000000,0.000000,0.000000,0.000000
8.307420,0.200000,0.000000,0.000000,0.000000,0.000000,0.000000
8.317420,0.200000,0.000000,0.000000,0.000000,0.000000,0.000000
8.327420,0.200000,0.000000,0.000000,0.000000,0.000000,0.000000
8.337420,0.200000,0.000000,0.000000,0.000000,0.000000,0.000000
8.347420,0.200000,0.000000,0.000000,0.000000,0.000000,0.000000
8.357420,0.200000,0.000000,0.000000,0.000000,0.000000,0.000000
8.367420,0.200000,0.000000,0.000000,0.000000,0.000000,0.000000
8.377420,0.200000,0.000000,0.000000,0.000000,0.000000,0.000000
8.387420,0.200000,0.000000,0.000000,0.000000,0.000000,0.000000
8.397420,0.200000,0.000000,0.000000,0.000000,0.000000,0.000000
8.407420,0.200000,0.000000,0.000000,0.000000,0.000000,0.000000
8.417420,0.200000,0.000000,0.000000,0.000000,0.000000,0.000000
8.427420,0.200000,0.000000,0.000000,0.000000,0.000000,0.000000
8.437420,0.200000,0.000000,0.000000,0.000000,0.000000,0.000000
8.447420,0.200000,0.000000,0.000000,0.000000,0.000000,0.000000
8.457420,0.200000,0.000000,0.000000,0.000000,0.000000,0.000000
8.467420,0.200000,0.000000,0.000000,0.000000,0.000000,0.000000
8.477420,0.200000,0.000000,0.000000,0.000000,0.000000,0.000000
8.487420,0.200000,0.000000,0.000000,0.000000,0.000000,0.000000
8.497420,0.200000,0.000000,0.000000,0.000000,0.000000,0.000000
8.507420,0.200000,0.000000,0.000000,0.000000,0.000000,0.000000
8.517420,0.200000,0.000000,0.000000,0.000000,0.000000,0.000000
8.527420,0.200000,0.000000,0.000000,0.000000,0.000000,0.000000
8.537420,0.200000,0.000000,0.000000,0.000000,0.000000,0.000000
8.547420,0.200000,0.000000,0.000000,0.000000,0.000000,0.000000
8.557420,0.200000,0.000000,0.000000,0.000000,0.000000,0.000000
8.567420,0.200000,0.000000,0.000000,0.000000,0.000000,0.000000
8.577420,0.200000,0.000000,0.000000,0.000000,0.000000,0.000000
8.587420,0.200000,0.000000,0.000000,0.000000,0.000000,0.000000
8.597420,0.200000,0.000000,0.000000,0.000000,0.000000,0.000000
8.607420,0.200000,0.000000,0.000000,0.000000,0.000000,0.000000
8.617420,0.200000,0.000000,0.000000,0.000000,0.000000,0.000000
8.627420,0.200000,0.000000,0.000000,0.000000,0.000000,0.000000
8.637420,0.200000,0.000000,0.000000,0.000000,0.000000,0.000000
8.647420,0.200000,0.000000,0.000000,0.000000,0.000000,0.000000
8.657420,0.200000,0.000000,0.000000,0.000000,0.000000,0.000000
8.667420,0.200000,0.000000,0.000000,0.000000,0.000000,0.000000
8.677420,0.200000,0.000000,0.000000,0.000000,0.000000,0.000000
8.687420,0.200000,0.000000,0.000000,0.000000,0.000000,0.000000
8.697420,0.200000,0.000000,0.000000,0.000000,0.000000,0.000000
8.707420,0.200000,0.000000,0.000000,0.000000,0.000000,0.000000
8.717420,0.200000,0.000000,0.000000,0.000000,0.000000,0.000000
8.727420,0.200000,0.000000,0.000000,0.000000,0.000000,0.000000
8.737420,0.200000,0.000000,0.000000,0.000000,0.000000,0.000000
8.747420,0.200000,0.000000,0.000000,0.000000,0.000000,0.000000
8.757420,0.200000,0.000000,0.000000,0.000000,0.000000,0.000000
8.767420,0.200000,0.000000,0.000000,0.000000,0.000000,0.000000
8.777420,0.200000,0.000000,0.000000,0.000000,0.000000,0.000000
8.787420,0.200000,0.000000,0.000000,0.000000,0.000000,0.000000
8.797420,0.200000,0.000000,0.000000,0.000000,0.000000,0.000000
8.807420,0.200000,0.000000,0.000000,0.000000,0.000000,0.000000
8.817420,0.200000,0.000000,0.000000,0.000000,0.000000,0.000000
8.827420,0.200000,0.000000,0.000000,0.000000,0.000000,0.000000
8.837420,0.200000,0.000000,0.000000,0.000000,0.000000,0.000000
8.847420,0.200000,0.000000,0.000000,0.000000,0.000000,0.000000
8.857420,0.200000,0.000000,0.000000,0.000000,0.000000,0.000000
8.867420,0.200000,0.000000,0.000000,0.000000,0.000000,0.000000
8.877420,0.200000,0.000000,0.000000,0.000000,0.000000,0.000000
8.887420,0.200000,0.000000,0.000000,0.000000,0.000000,0.000000
8.897420,0.200000,0.000000,0.000000,0.000000,0.000000,0.000000
8.907420,0.200000,0.000000,0.000000,0.000000,0.000000,0.000000
8.917420,0.200000,0.000000,0.000000,0.000000,0.000000,0.000000
8.927420,0.200000,0.000000,0.000000,0.000000,0.000000,0.000000
8.937420,0.200000,0.000000,0.000000,0.000000,0.000000,0.000000
8.947420,0.200000,0.000000,0.000000,0.000000,0.000000,0.000000
8.957420,0.200000,0.000000,0.000000,0.000000,0.000000,0.000000
8.967420,0.200000,0.000000,0.000000,0.000000,0.000000,0.000000
8.977420,0.200000,0.000000,0.000000,0.000000,0.000000,0.000000
8.987420,0.200000,0.000000,0.000000,0.000000,0.000000,0.000000
8.997420,0.200000,0.000000,0.000000,0.000000,0.000000,0.000000
9.007420,0.200000,0.000000,0.000000,0.000000,0.000000,0.000000
9.017420,0.200000,0.000000,0.000000,0.000000,0.000000,0.000000
9.027420,0.200000,0.000000,0.000000,0.000000,0.000000,0.000000
9.037420,0.200000,0.000000,0.000000,0.000000,0.000000,0.000000
9.047420,0.200000,0.000000,0.000000,0.000000,0.000000,0.000000
9.057420,0.200000,0.000000,0.000000,0.000000,0.000000,0.000000
9.067420,0.200000,0.000000,0.000000,0.000000,0.000000,0.000000
9.077420,0.200000,0.000000,0.000000,0.000000,0.000000,0.000000
9.087420,0.200000,0.000000,0.000000,0.000000,0.000000,0.000000
9.097420,0.200000,0.000000,0.000000,0.000000,0.000000,0.000000
9.107420,0.200000,0.000000,0.000000,0.000000,0.000000,0.000000
9.117420,0.200000,0.000000,0.000000,0.000000,0.000000,0.000000
9.127420,0.200000,0.000000,0.000000,0.000000,0.000000,0.000000
9.137420,0.200000,0.000000,0.000000,0.000000,0.000000,0.000000
9.147420,0.200000,0.000000,0.000000,0.000000,0.000000,0.000000
9.157420,0.200000,0.000000,0.000000,0.000000,0.000000,0.000000
9.167420,0.200000,0.000000,0.000000,0.000000,0.000000,0.000000
9.177420,0.200000,0.000000,0.000000,0.000000,0.000000,0.000000
9.187420,0.200000,0.000000,0.000000,0.000000,0.000000,0.000000
9.197420,0.200000,0.000000,0.000000,0.000000,0.000000,0.000000
9.207420,0.200000,0.000000,0.000000,0.000000,0.000000,0.000000
9.217420,0.200000,0.000000,0.000000,0.000000,0.000000,0.000000
9.227420,0.200000,0.000000,0.000000,0.000000,0.000000,0.000000
9.237420,0.200000,0.000000,0.000000,0.000000,0.000000,0.000000
9.247420,0.200000,0.000000,0.000000,0.000000,0.000000,0.000000
9.257420,0.200000,0.000000,0.000000,0.000000,0.000000,0.000000
9.267420,0.200000,0.000000,0.000000,0.000000,0.000000,0.000000
9.277420,0.200000,0.000000,0.000000,0.000000,0.000000,0.000000
9.287420,0.200000,0.000000,0.000000,0.000000,0.000000,0.000000
9.297420,0.200000,0.000000,0.000000,0.000000,0.000000,0.000000
9.307420,0.200000,0.000000,0.000000,0.000000,0.000000,0.000000
9.317420,0.200000,0.000000,0.000000,0.000000,0.000000,0.000000
9.327420,0.200000,0.000000,0.000000,0.000000,0.000000,0.000000
9.337420,0.200000,0.000000,0.000000,0.000000,0.000000,0.000000
9.347420,0.200000,0.000000,0.000000,0.000000,0.000000,0.000000
9.357420,0.200000,0.000000,0.000000,0.000000,0.000000,0.000000
9.367420,0.200000,0.000000,0.000000,0.000000,0.000000,0.000000
9.377420,0.200000,0.000000,0.000000,0.000000,0.000000,0.000000
9.387420,0.200000,0.000000,0.000000,0.000000,0.000000,0.000000
9.397420,0.200000,0.000000,0.000000,0.000000,0.000000,0.000000
9.407420,0.200000,0.000000,0.000000,0.000000,0.000000,0.000000
9.417420,0.200000,0.000000,0.000000,0.000000,0.000000,0.000000
9.427420,0.200000,0.000000,0.000000,0.000000,0.000000,0.000000
9.437420,0.200000,0.000000,0.000000,0.000000,0.000000,0.000000
9.447420,0.200000,0.000000,0.000000,0.000000,0.000000,0.000000
9.457420,0.200000,0.000000,0.000000,0.000000,0.000000,0.000000
9.467420,0.200000,0.000000,0.000000,0.000000,0.000000,0.000000
9.477420,0.200000,0.000000,0.000000,0.000000,0.000000,0.000000
9.487420,0.200000,0.000000,0.000000,0.000000,0.000000,0.000000
9.497420,0.200000,0.000000,0.000000,0.000000,0.000000,0.000000
9.507420,0.200000,0.000000,0.000000,0.000000,0.000000,0.000000
9.517420,0.200000,0.000000,0.000000,0.000000,0.000000,0.000000
9.527420,0.200000,0.000000,0.000000,0.000000,0.000000,0.000000
9.537420,0.200000,0.000000,0.000000,0.000000,0.000000,0.000000
9.547420,0.200000,0.000000,0.000000,0.000000,0.000000,0.000000
9.557420,0.200000,0.000000,0.000000,0.000000,0.000000,0.000000
9.567420,0.200000,0.000000,0.000000,0.000000,0.000000,0.000000
9.577420,0.200000,0.000000,0.000000,0.000000,0.000000,0.000000
9.587420,0.200000,0.000000,0.000000,0.000000,0.000000,0.000000
9.597420,0.200000,0.000000,0.000000,0.000000,0.000000,0.000000
9.607420,0.200000,0.000000,0.000000,0.000000,0.000000,0.000000
9.617420,0.200000,0.000000,0.000000,0.000000,0.000000,0.000000
9.627420,0.200000,0.000000,0.000000,0.000000,0.000000,0.000000
9.637420,0.200000,0.000000,0.000000,0.000000,0.000000,0.000000
9.647420,0.200000,0.000000,0.000000,0.000000,0.000000,0.000000
9.657420,0.200000,0.000000,0.000000,0.000000,0.000000,0.000000
9.667420,0.200000,0.000000,0.000000,0.000000,0.000000,0.000000
9.677420,0.200000,0.000000,0.000000,0.000000,0.000000,0.000000
9.687420,0.200000,0.000000,0.000000,0.000000,0.000000,0.000000
9.697420,0.200000,0.000000,0.000000,0.000000,0.000000,0.000000
9.707420,0.200000,0.000000,0.000000,0.000000,0.000000,0.000000
9.717420,0.200000,0.000000,0.000000,0.000000,0.000000,0.000000
9.727420,0.200000,0.000000,0.000000,0.000000,0.000000,0.000000
9.737420,0.200000,0.000000,0.000000,0.000000,0.000000,0.000000
9.747420,0.200000,0.000000,0.000000,0.000000,0.000000,0.000000
9.757420,0.200000,0.000000,0.000000,0.000000,0.000000,0.000000
9.767420,0.200000,0.000000,0.000000,0.000000,0.000000,0.000000
9.777420,0.200000,0.000000,0.000000,0.000000,0.000000,0.000000
9.787420,0.200000,0.000000,0.000000,0.000000,0.000000,0.000000
9.797420,0.200000,0.000000,0.000000,0.000000,0.000000,0.000000
9.807420,0.200000,0.000000,0.000000,0.000000,0.000000,0.000000
9.817420,0.200000,0.000000,0.000000,0.000000,0.000000,0.000000
9.827420,0.200000,0.000000,0.000000,0.000000,0.000000,0.000000
9.837420,0.200000,0.000000,0.000000,0.000000,0.000000,0.000000
9.847420,0.200000,0.000000,0.000000,0.000000,0.000000,0.000000
9.857420,0.200000,0.000000,0.000000,0.000000,0.000000,0.000000
9.867420,0.200000,0.000000,0.000000,0.000000,0.000000,0.000000
9.877420,0.200000,0.000000,0.000000,0.000000,0.000000,0.000000
9.887420,0.200000,0.000000,0.000000,0.000000,0.000000,0.000000
9.897420,0.200000,0.000000,0.000000,0.000000,0.000000,0.000000
9.907420,0.200000,0.000000,0.000000,0.000000,0.000000,0.000000
9.917420,0.200000,0.000000,0.000000,0.000000,0.000000,0.000000
9.927420,0.200000,0.000000,0.000000,0.000000,0.000000,0.000000
9.937420,0.200000,0.000000,0.000000,0.000000,0.000000,0.000000
9.947420,0.200000,0.000000,0.000000,0.000000,0.000000,0.000000
9.957420,0.200000,0.000000,0.000000,0.000000,0.000000,0.000000
9.967420,0.200000,0.000000,0.000000,0.000000,0.000000,0.000000
9.977420,0.200000,0.000000,0.000000,0.000000,0.000000,0.000000
9.987420,0.200000,0.000000,0.000000,0.000000,0.000000,0.000000
9.997420,0.200000,0.000000,0.000000,0.000000,0.000000,0.000000
10.007420,0.200000,0.000000,0.000000,0.000000,0.000000,0.000000
10.017420,0.200000,0.000000,0.000000,0.000000,0.000000,0.000000
10.027420,0.200000,0.000000,0.000000,0.000000,0.000000,0.000000
10.037420,0.200000,0.000000,0.000000,0.000000,0.000000,0.000000
10.047420,0.200000,0.000000,0.000000,0.000000,0.000000,0.000000
10.057420,0.200000,0.000000,0.000000,0.000000,0.000000,0.000000
10.067420,0.200000,0.000000,0.000000,0.000000,0.000000,0.000000
10.077420,0.200000,0.000000,0.000000,0.000000,0.000000,0.000000
10.087420,0.200000,0.000000,0.000000,0.000000,0.000000,0.000000
10.097420,0.200000,0.000000,0.000000,0.000000,0.000000,0.000000
10.107420,0.200000,0.000000,0.000000,0.000000,0.000000,0.000000
10.117420,0.200000,0.000000,0.000000,0.000000,0.000000,0.000000
10.127420,0.200000,0.000000,0.000000,0.000000,0.000000,0.000000
10.137420,0.200000,0.000000,0.000000,0.000000,0.000000,0.000000
10.147420,0.200000,0.000000,0.000000,0.000000,0.000000,0.000000
10.157420,0.200000,0.000000,0.000000,0.000000,0.000000,0.000000
10.167420,0.200000,0.000000,0.000000,0.000000,0.000000,0.000000
10.177420,0.200000,0.000000,0.000000,0.000000,0.000000,0.000000
10.187420,0.200000,0.000000,0.000000,0.000000,0.000000,0.000000
10.197420,0.199073,0.000000,0.000000,0.000000,0.000000,0.000000
10.207420,0.199073,0.000000,0.000000,0.000000,0.000000,0.000000
10.217420,0.199073,0.000000,0.000000,0.000000,0.000000,0.000000
10.227420,0.197207,0.000000,0.000000,0.000000,0.000000,0.000000
10.237420,0.197207,0.000000,0.000000,0.000000,0.000000,0.000000
10.247420,0.197207,0.000000,0.000000,0.000000,0.000000,0.000000
10.257420,0.197207,0.000000,0.000000,0.000000,0.000000,0.000000
10.267420,0.196269,0.000000,0.000000,0.000000,0.000000,0.000000
10.277420,0.194380,0.000000,0.000000,0.000000,0.000000,0.000000
10.287420,0.194380,0.000000,0.000000,0.000000,0.000000,0.000000
10.297420,0.194380,0.000000,0.000000,0.000000,0.000000,0.000000
10.307420,0.194380,0.000000,0.000000,0.000000,0.000000,0.000000
10.317420,0.194380,0.000000,0.000000,0.000000,0.000000,0.000000
10.327420,0.192477,0.000000,0.000000,0.000000,0.000000,0.000000
10.337420,0.192477,0.000000,0.000000,0.000000,0.000000,0.000000
10.347420,0.192477,0.000000,0.000000,0.000000,0.000000,0.000000
10.357420,0.191520,0.000000,0.000000,0.000000,0.000000,0.000000
10.367420,0.191520,0.000000,0.000000,0.000000,0.000000,0.000000
10.377420,0.190560,0.000000,0.000000,0.000000,0.000000,0.000000
10.387420,0.190560,0.000000,0.000000,0.000000,0.000000,0.000000
10.397420,0.188629,0.000000,0.000000,0.000000,0.000000,0.000000
10.407420,0.188629,0.000000,0.000000,0.000000,0.000000,0.000000
10.417420,0.188629,0.000000,0.000000,0.000000,0.000000,0.000000
10.427420,0.188629,0.000000,0.000000,0.000000,0.000000,0.000000
10.437420,0.187659,0.000000,0.000000,0.000000,0.000000,0.000000
10.447420,0.187659,0.000000,0.000000,0.000000,0.000000,0.000000
10.457420,0.187659,0.000000,0.000000,0.000000,0.000000,0.000000
10.467420,0.185709,0.000000,0.000000,0.000000,0.000000,0.000000
10.477420,0.185709,0.000000,0.000000,0.000000,0.000000,0.000000
10.487420,0.185709,0.000000,0.000000,0.000000,0.000000,0.000000
10.497420,0.183746,0.000000,0.000000,0.000000,0.000000,0.000000
10.507420,0.183746,0.000000,0.000000,0.000000,0.000000,0.000000
10.517420,0.183746,0.000000,0.000000,0.000000,0.000000,0.000000
10.527420,0.183746,0.000000,0.000000,0.000000,0.000000,0.000000
10.537420,0.182760,0.000000,0.000000,0.000000,0.000000,0.000000
10.547420,0.182760,0.000000,0.000000,0.000000,0.000000,0.000000
10.557420,0.180780,0.000000,0.000000,0.000000,0.000000,0.000000
10.567420,0.180780,0.000000,0.000000,0.000000,0.000000,0.000000
10.577420,0.180780,0.000000,0.000000,0.000000,0.000000,0.000000
10.587420,0.180780,0.000000,0.000000,0.000000,0.000000,0.000000
10.597420,0.179786,0.000000,0.000000,0.000000,0.000000,0.000000
10.607420,0.179786,0.000000,0.000000,0.000000,0.000000,0.000000
10.617420,0.177789,0.000000,0.000000,0.000000,0.000000,0.000000
10.627420,0.177789,0.000000,0.000000,0.000000,0.000000,0.000000
10.637420,0.177789,0.000000,0.000000,0.000000,0.000000,0.000000
10.647420,0.177789,0.000000,0.000000,0.000000,0.000000,0.000000
10.657420,0.176786,0.000000,0.000000,0.000000,0.000000,0.000000
10.667420,0.176786,0.000000,0.000000,0.000000,0.000000,0.000000
10.677420,0.174774,0.000000,0.000000,0.000000,0.000000,0.000000
10.687420,0.174774,0.000000,0.000000,0.000000,0.000000,0.000000
10.697420,0.174774,0.000000,0.000000,0.000000,0.000000,0.000000
10.707420,0.174774,0.000000,0.000000,0.000000,0.000000,0.000000
10.717420,0.172752,0.000000,0.000000,0.000000,0.000000,0.000000
10.727420,0.172752,0.000000,0.000000,0.000000,0.000000,0.000000
10.737420,0.172752,0.000000,0.000000,0.000000,0.000000,0.000000
10.747420,0.172752,0.000000,0.000000,0.000000,0.000000,0.000000
10.757420,0.172752,0.000000,0.000000,0.000000,0.000000,0.000000
10.767420,0.171737,0.000000,0.000000,0.000000,0.000000,0.000000
10.777420,0.169701,0.000000,0.000000,0.000000,0.000000,0.000000
10.787420,0.169701,0.000000,0.000000,0.000000,0.000000,0.000000
10.797420,0.169701,0.000000,0.000000,0.000000,0.000000,0.000000
10.807420,0.169701,0.000000,0.000000,0.000000,0.000000,0.000000
10.817420,0.169701,0.000000,0.000000,0.000000,0.000000,0.000000
10.827420,0.168680,0.000000,0.000000,0.000000,0.000000,0.000000
10.837420,0.168680,0.000000,0.000000,0.000000,0.000000,0.000000
10.847420,0.166631,0.000000,0.000000,0.000000,0.000000,0.000000
10.857420,0.166631,0.000000,0.000000,0.000000,0.000000,0.000000
10.867420,0.166631,0.000000,0.000000,0.000000,0.000000,0.000000
10.877420,0.164575,0.000000,0.000000,0.000000,0.000000,0.000000
10.887420,0.164575,0.000000,0.000000,0.000000,0.000000,0.000000
10.897420,0.164575,0.000000,0.000000,0.000000,0.000000,0.000000
10.907420,0.164575,0.000000,0.000000,0.000000,0.000000,0.000000
10.917420,0.162511,0.000000,0.000000,0.000000,0.000000,0.000000
10.927420,0.162511,0.000000,0.000000,0.000000,0.000000,0.000000
10.937420,0.162511,0.000000,0.000000,0.000000,0.000000,0.000000
10.947420,0.162511,0.000000,0.000000,0.000000,0.000000,0.000000
10.957420,0.161476,0.000000,0.000000,0.000000,0.000000,0.000000
10.967420,0.161476,0.000000,0.000000,0.000000,0.000000,0.000000
10.977420,0.159402,0.000000,0.000000,0.000000,0.000000,0.000000
10.987420,0.159402,0.000000,0.000000,0.000000,0.000000,0.000000
10.997420,0.159402,0.000000,0.000000,0.000000,0.000000,0.000000
11.007420,0.159402,0.000000,0.000000,0.000000,0.000000,0.000000
11.017420,0.158363,0.000000,0.000000,0.000000,0.000000,0.000000
11.027420,0.158363,0.000000,0.000000,0.000000,0.000000,0.000000
11.037420,0.156280,0.000000,0.000000,0.000000,0.000000,0.000000
11.047420,0.156280,0.000000,0.000000,0.000000,0.000000,0.000000
11.057420,0.156280,0.000000,0.000000,0.000000,0.000000,0.000000
11.067420,0.156280,0.000000,0.000000,0.000000,0.000000,0.000000
11.077420,0.154191,0.000000,0.000000,0.000000,0.000000,0.000000
11.087420,0.154191,0.000000,0.000000,0.000000,0.000000,0.000000
11.097420,0.154191,0.000000,0.000000,0.000000,0.000000,0.000000
11.107420,0.154191,0.000000,0.000000,0.000000,0.000000,0.000000
11.117420,0.153145,0.000000,0.000000,0.000000,0.000000,0.000000
11.127420,0.153145,0.000000,0.000000,0.000000,0.000000,0.000000
11.137420,0.151049,0.000000,0.000000,0.000000,0.000000,0.000000
11.147420,0.151049,0.000000,0.000000,0.000000,0.000000,0.000000
11.157420,0.151049,0.000000,0.000000,0.000000,0.000000,0.000000
11.167420,0.151049,0.000000,0.000000,0.000000,0.000000,0.000000
11.177420,0.151049,0.000000,0.000000,0.000000,0.000000,0.000000
11.187420,0.150000,0.000000,0.000000,0.000000,0.000000,0.000000
11.197420,0.147898,0.000000,0.000000,0.000000,0.000000,0.000000
11.207420,0.147898,0.000000,0.000000,0.000000,0.000000,0.000000
11.217420,0.147898,0.000000,0.000000,0.000000,0.000000,0.000000
11.227420,0.147898,0.000000,0.000000,0.000000,0.000000,0.000000
11.237420,0.146846,0.000000,0.000000,0.000000,0.000000,0.000000
11.247420,0.146846,0.000000,0.000000,0.000000,0.000000,0.000000
11.257420,0.144739,0.000000,0.000000,0.000000,0.000000,0.000000
11.267420,0.144739,0.000000,0.000000,0.000000,0.000000,0.000000
11.277420,0.144739,0.000000,0.000000,0.000000,0.000000,0.000000
11.287420,0.144739,0.000000,0.000000,0.000000,0.000000,0.000000
11.297420,0.142629,0.000000,0.000000,0.000000,0.000000,0.000000
11.307420,0.142629,0.000000,0.000000,0.000000,0.000000,0.000000
11.317420,0.142629,0.000000,0.000000,0.000000,0.000000,0.000000
11.327420,0.142629,0.000000,0.000000,0.000000,0.000000,0.000000
11.337420,0.141573,0.000000,0.000000,0.000000,0.000000,0.000000
11.347420,0.141573,0.000000,0.000000,0.000000,0.000000,0.000000
11.357420,0.139460,0.000000,0.000000,0.000000,0.000000,0.000000
11.367420,0.139460,0.000000,0.000000,0.000000,0.000000,0.000000
11.377420,0.139460,0.000000,0.000000,0.000000,0.000000,0.000000
11.387420,0.139460,0.000000,0.000000,0.000000,0.000000,0.000000
11.397420,0.137345,0.000000,0.000000,0.000000,0.000000,0.000000
11.407420,0.137345,0.000000,0.000000,0.000000,0.000000,0.000000
11.417420,0.137345,0.000000,0.000000,0.000000,0.000000,0.000000
11.427420,0.137345,0.000000,0.000000,0.000000,0.000000,0.000000
11.437420,0.137345,0.000000,0.000000,0.000000,0.000000,0.000000
11.447420,0.136287,0.000000,0.000000,0.000000,0.000000,0.000000
11.457420,0.136287,0.000000,0.000000,0.000000,0.000000,0.000000
11.467420,0.134171,0.000000,0.000000,0.000000,0.000000,0.000000
11.477420,0.134171,0.000000,0.000000,0.000000,0.000000,0.000000
11.487420,0.134171,0.000000,0.000000,0.000000,0.000000,0.000000
11.497420,0.133113,0.000000,0.000000,0.000000,0.000000,0.000000
11.507420,0.133113,0.000000,0.000000,0.000000,0.000000,0.000000
11.517420,0.130996,0.000000,0.000000,0.000000,0.000000,0.000000
11.527420,0.130996,0.000000,0.000000,0.000000,0.000000,0.000000
11.537420,0.130996,0.000000,0.000000,0.000000,0.000000,0.000000
11.547420,0.130996,0.000000,0.000000,0.000000,0.000000,0.000000
11.557420,0.130996,0.000000,0.000000,0.000000,0.000000,0.000000
11.567420,0.128880,0.000000,0.000000,0.000000,0.000000,0.000000
11.577420,0.128880,0.000000,0.000000,0.000000,0.000000,0.000000
11.587420,0.128880,0.000000,0.000000,0.000000,0.000000,0.000000
11.597420,0.127822,0.000000,0.000000,0.000000,0.000000,0.000000
11.607420,0.127822,0.000000,0.000000,0.000000,0.000000,0.000000
11.617420,0.125707,0.000000,0.000000,0.000000,0.000000,0.000000
11.627420,0.125707,0.000000,0.000000,0.000000,0.000000,0.000000
11.637420,0.125707,0.000000,0.000000,0.000000,0.000000,0.000000
11.647420,0.125707,0.000000,0.000000,0.000000,0.000000,0.000000
11.657420,0.124650,0.000000,0.000000,0.000000,0.000000,0.000000
11.667420,0.124650,0.000000,0.000000,0.000000,0.000000,0.000000
11.677420,0.122538,0.000000,0.000000,0.000000,0.000000,0.000000
11.687420,0.122538,0.000000,0.000000,0.000000,0.000000,0.000000
11.697420,0.122538,0.000000,0.000000,0.000000,0.000000,0.000000
11.707420,0.122538,0.000000,0.000000,0.000000,0.000000,0.000000
11.717420,0.121482,0.000000,0.000000,0.000000,0.000000,0.000000
11.727420,0.121482,0.000000,0.000000,0.000000,0.000000,0.000000
11.737420,0.120428,0.000000,0.000000,0.000000,0.000000,0.000000
11.747420,0.120428,0.000000,0.000000,0.000000,0.000000,0.000000
11.757420,0.120428,0.000000,0.000000,0.000000,0.000000,0.000000
11.767420,0.118320,0.000000,0.000000,0.000000,0.000000,0.000000
11.777420,0.118320,0.000000,0.000000,0.000000,0.000000,0.000000
11.787420,0.118320,0.000000,0.000000,0.000000,0.000000,0.000000
11.797420,0.116216,0.000000,0.000000,0.000000,0.000000,0.000000
11.807420,0.116216,0.000000,0.000000,0.000000,0.000000,0.000000
11.817420,0.116216,0.000000,0.000000,0.000000,0.000000,0.000000
11.827420,0.116216,0.000000,0.000000,0.000000,0.000000,0.000000
11.837420,0.115165,0.000000,0.000000,0.000000,0.000000,0.000000
11.847420,0.115165,0.000000,0.000000,0.000000,0.000000,0.000000
11.857420,0.113066,0.000000,0.000000,0.000000,0.000000,0.000000
11.867420,0.113066,0.000000,0.000000,0.000000,0.000000,0.000000
11.877420,0.113066,0.000000,0.000000,0.000000,0.000000,0.000000
11.887420,0.113066,0.000000,0.000000,0.000000,0.000000,0.000000
11.897420,0.113066,0.000000,0.000000,0.000000,0.000000,0.000000
11.907420,0.110972,0.000000,0.000000,0.000000,0.000000,0.000000
11.917420,0.110972,0.000000,0.000000,0.000000,0.000000,0.000000
11.927420,0.110972,0.000000,0.000000,0.000000,0.000000,0.000000
11.937420,0.110972,0.000000,0.000000,0.000000,0.000000,0.000000
11.947420,0.109927,0.000000,0.000000,0.000000,0.000000,0.000000
11.957420,0.107840,0.000000,0.000000,0.000000,0.000000,0.000000
11.967420,0.107840,0.000000,0.000000,0.000000,0.000000,0.000000
11.977420,0.107840,0.000000,0.000000,0.000000,0.000000,0.000000
11.987420,0.107840,0.000000,0.000000,0.000000,0.000000,0.000000
11.997420,0.107840,0.000000,0.000000,0.000000,0.000000,0.000000
12.007420,0.105759,0.000000,0.000000,0.000000,0.000000,0.000000
12.017420,0.105759,0.000000,0.000000,0.000000,0.000000,0.000000
12.027420,0.105759,0.000000,0.000000,0.000000,0.000000,0.000000
12.037420,0.104721,0.000000,0.000000,0.000000,0.000000,0.000000
12.047420,0.104721,0.000000,0.000000,0.000000,0.000000,0.000000
12.057420,0.102649,0.000000,0.000000,0.000000,0.000000,0.000000
12.067420,0.102649,0.000000,0.000000,0.000000,0.000000,0.000000
12.077420,0.102649,0.000000,0.000000,0.000000,0.000000,0.000000
12.087420,0.102649,0.000000,0.000000,0.000000,0.000000,0.000000
12.097420,0.100584,0.000000,0.000000,0.000000,0.000000,0.000000
12.107420,0.100584,0.000000,0.000000,0.000000,0.000000,0.000000
12.117420,0.100584,0.000000,0.000000,0.000000,0.000000,0.000000
12.127420,0.100584,0.000000,0.000000,0.000000,0.000000,0.000000
12.137420,0.099554,0.000000,0.000000,0.000000,0.000000,0.000000
12.147420,0.099554,0.000000,0.000000,0.000000,0.000000,0.000000
12.157420,0.097500,0.000000,0.000000,0.000000,0.000000,0.000000
12.167420,0.097500,0.000000,0.000000,0.000000,0.000000,0.000000
12.177420,0.097500,0.000000,0.000000,0.000000,0.000000,0.000000
12.187420,0.097500,0.000000,0.000000,0.000000,0.000000,0.000000
12.197420,0.096476,0.000000,0.000000,0.000000,0.000000,0.000000
12.207420,0.096476,0.000000,0.000000,0.000000,0.000000,0.000000
12.217420,0.094434,0.000000,0.000000,0.000000,0.000000,0.000000
12.227420,0.094434,0.000000,0.000000,0.000000,0.000000,0.000000
12.237420,0.094434,0.000000,0.000000,0.000000,0.000000,0.000000
12.247420,0.094434,0.000000,0.000000,0.000000,0.000000,0.000000
12.257420,0.093417,0.000000,0.000000,0.000000,0.000000,0.000000
12.267420,0.093417,0.000000,0.000000,0.000000,0.000000,0.000000
12.277420,0.091388,0.000000,0.000000,0.000000,0.000000,0.000000
12.287420,0.091388,0.000000,0.000000,0.000000,0.000000,0.000000
12.297420,0.091388,0.000000,0.000000,0.000000,0.000000,0.000000
12.307420,0.091388,0.000000,0.000000,0.000000,0.000000,0.000000
12.317420,0.089369,0.000000,0.000000,0.000000,0.000000,0.000000
12.327420,0.089369,0.000000,0.000000,0.000000,0.000000,0.000000
12.337420,0.089369,0.000000,0.000000,0.000000,0.000000,0.000000
12.347420,0.089369,0.000000,0.000000,0.000000,0.000000,0.000000
12.357420,0.088363,0.000000,0.000000,0.000000,0.000000,0.000000
12.367420,0.088363,0.000000,0.000000,0.000000,0.000000,0.000000
12.377420,0.086359,0.000000,0.000000,0.000000,0.000000,0.000000
12.387420,0.086359,0.000000,0.000000,0.000000,0.000000,0.000000
12.397420,0.086359,0.000000,0.000000,0.000000,0.000000,0.000000
12.407420,0.086359,0.000000,0.000000,0.000000,0.000000,0.000000
12.417420,0.085361,0.000000,0.000000,0.000000,0.000000,0.000000
12.427420,0.085361,0.000000,0.000000,0.000000,0.000000,0.000000
12.437420,0.083373,0.000000,0.000000,0.000000,0.000000,0.000000
12.447420,0.083373,0.000000,0.000000,0.000000,0.000000,0.000000
12.457420,0.083373,0.000000,0.000000,0.000000,0.000000,0.000000
12.467420,0.083373,0.000000,0.000000,0.000000,0.000000,0.000000
12.477420,0.083373,0.000000,0.000000,0.000000,0.000000,0.000000
12.487420,0.082384,0.000000,0.000000,0.000000,0.000000,0.000000
12.497420,0.082384,0.000000,0.000000,0.000000,0.000000,0.000000
12.507420,0.080413,0.000000,0.000000,0.000000,0.000000,0.000000
12.517420,0.080413,0.000000,0.000000,0.000000,0.000000,0.000000
12.527420,0.080413,0.000000,0.000000,0.000000,0.000000,0.000000
12.537420,0.078455,0.000000,0.000000,0.000000,0.000000,0.000000
12.547420,0.078455,0.000000,0.000000,0.000000,0.000000,0.000000
12.557420,0.078455,0.000000,0.000000,0.000000,0.000000,0.000000
12.567420,0.078455,0.000000,0.000000,0.000000,0.000000,0.000000
12.577420,0.078455,0.000000,0.000000,0.000000,0.000000,0.000000
12.587420,0.077480,0.000000,0.000000,0.000000,0.000000,0.000000
12.597420,0.075540,0.000000,0.000000,0.000000,0.000000,0.000000
12.607420,0.075540,0.000000,0.000000,0.000000,0.000000,0.000000
12.617420,0.075540,0.000000,0.000000,0.000000,0.000000,0.000000
12.627420,0.075540,0.000000,0.000000,0.000000,0.000000,0.000000
12.637420,0.074576,0.000000,0.000000,0.000000,0.000000,0.000000
12.647420,0.074576,0.000000,0.000000,0.000000,0.000000,0.000000
12.657420,0.072656,0.000000,0.000000,0.000000,0.000000,0.000000
12.667420,0.072656,0.000000,0.000000,0.000000,0.000000,0.000000
12.677420,0.072656,0.000000,0.000000,0.000000,0.000000,0.000000
12.687420,0.072656,0.000000,0.000000,0.000000,0.000000,0.000000
12.697420,0.070751,0.000000,0.000000,0.000000,0.000000,0.000000
12.707420,0.070751,0.000000,0.000000,0.000000,0.000000,0.000000
12.717420,0.070751,0.000000,0.000000,0.000000,0.000000,0.000000
12.727420,0.070751,0.000000,0.000000,0.000000,0.000000,0.000000
12.737420,0.069804,0.000000,0.000000,0.000000,0.000000,0.000000
12.747420,0.069804,0.000000,0.000000,0.000000,0.000000,0.000000
12.757420,0.067920,0.000000,0.000000,0.000000,0.000000,0.000000
12.767420,0.067920,0.000000,0.000000,0.000000,0.000000,0.000000
12.777420,0.067920,0.000000,0.000000,0.000000,0.000000,0.000000
12.787420,0.067920,0.000000,0.000000,0.000000,0.000000,0.000000
12.797420,0.066984,0.000000,0.000000,0.000000,0.000000,0.000000
12.807420,0.066984,0.000000,0.000000,0.000000,0.000000,0.000000
12.817420,0.065123,0.000000,0.000000,0.000000,0.000000,0.000000
12.827420,0.065123,0.000000,0.000000,0.000000,0.000000,0.000000
12.837420,0.065123,0.000000,0.000000,0.000000,0.000000,0.000000
12.847420,0.065123,0.000000,0.000000,0.000000,0.000000,0.000000
12.857420,0.064199,0.000000,0.000000,0.000000,0.000000,0.000000
12.867420,0.064199,0.000000,0.000000,0.000000,0.000000,0.000000
12.877420,0.062363,0.000000,0.000000,0.000000,0.000000,0.000000
12.887420,0.062363,0.000000,0.000000,0.000000,0.000000,0.000000
12.897420,0.062363,0.000000,0.000000,0.000000,0.000000,0.000000
12.907420,0.062363,0.000000,0.000000,0.000000,0.000000,0.000000
12.917420,0.062363,0.000000,0.000000,0.000000,0.000000,0.000000
12.927420,0.061451,0.000000,0.000000,0.000000,0.000000,0.000000
12.937420,0.059639,0.000000,0.000000,0.000000,0.000000,0.000000
12.947420,0.059639,0.000000,0.000000,0.000000,0.000000,0.000000
12.957420,0.059639,0.000000,0.000000,0.000000,0.000000,0.000000
12.967420,0.059639,0.000000,0.000000,0.000000,0.000000,0.000000
12.977420,0.057845,0.000000,0.000000,0.000000,0.000000,0.000000
12.987420,0.057845,0.000000,0.000000,0.000000,0.000000,0.000000
12.997420,0.057845,0.000000,0.000000,0.000000,0.000000,0.000000
13.007420,0.057845,0.000000,0.000000,0.000000,0.000000,0.000000
13.017420,0.056955,0.000000,0.000000,0.000000,0.000000,0.000000
13.027420,0.056955,0.000000,0.000000,0.000000,0.000000,0.000000
13.037420,0.055188,0.000000,0.000000,0.000000,0.000000,0.000000
13.047420,0.055188,0.000000,0.000000,0.000000,0.000000,0.000000
13.057420,0.055188,0.000000,0.000000,0.000000,0.000000,0.000000
13.067420,0.055188,0.000000,0.000000,0.000000,0.000000,0.000000
13.077420,0.054311,0.000000,0.000000,0.000000,0.000000,0.000000
13.087420,0.054311,0.000000,0.000000,0.000000,0.000000,0.000000
13.097420,0.054311,0.000000,0.000000,0.000000,0.000000,0.000000
13.107420,0.052572,0.000000,0.000000,0.000000,0.000000,0.000000
13.117420,0.052572,0.000000,0.000000,0.000000,0.000000,0.000000
13.127420,0.052572,0.000000,0.000000,0.000000,0.000000,0.000000
13.137420,0.051710,0.000000,0.000000,0.000000,0.000000,0.000000
13.147420,0.051710,0.000000,0.000000,0.000000,0.000000,0.000000
13.157420,0.050000,0.000000,0.000000,0.000000,0.000000,0.000000
13.167420,0.050000,0.000000,0.000000,0.000000,0.000000,0.000000
13.177420,0.050000,0.000000,0.000000,0.000000,0.000000,0.000000
13.187420,0.050000,0.000000,0.000000,0.000000,0.000000,0.000000
13.197420,0.050000,0.000000,0.000000,0.000000,0.000000,0.000000
13.207420,0.049153,0.000000,0.000000,0.000000,0.000000,0.000000
13.217420,0.049153,0.000000,0.000000,0.000000,0.000000,0.000000
13.227420,0.047473,0.000000,0.000000,0.000000,0.000000,0.000000
13.237420,0.047473,0.000000,0.000000,0.000000,0.000000,0.000000
13.247420,0.047473,0.000000,0.000000,0.000000,0.000000,0.000000
13.257420,0.046641,0.000000,0.000000,0.000000,0.000000,0.000000
13.267420,0.046641,0.000000,0.000000,0.000000,0.000000,0.000000
13.277420,0.044992,0.000000,0.000000,0.000000,0.000000,0.000000
13.287420,0.044992,0.000000,0.000000,0.000000,0.000000,0.000000
13.297420,0.044992,0.000000,0.000000,0.000000,0.000000,0.000000
13.307420,0.044992,0.000000,0.000000,0.000000,0.000000,0.000000
13.317420,0.044992,0.000000,0.000000,0.000000,0.000000,0.000000
13.327420,0.044176,0.000000,0.000000,0.000000,0.000000,0.000000
13.337420,0.042560,0.000000,0.000000,0.000000,0.000000,0.000000
13.347420,0.042560,0.000000,0.000000,0.000000,0.000000,0.000000
13.357420,0.042560,0.000000,0.000000,0.000000,0.000000,0.000000
13.367420,0.042560,0.000000,0.000000,0.000000,0.000000,0.000000
13.377420,0.041760,0.000000,0.000000,0.000000,0.000000,0.000000
13.387420,0.041760,0.000000,0.000000,0.000000,0.000000,0.000000
13.397420,0.040177,0.000000,0.000000,0.000000,0.000000,0.000000
13.407420,0.040177,0.000000,0.000000,0.000000,0.000000,0.000000
13.417420,0.040177,0.000000,0.000000,0.000000,0.000000,0.000000
13.427420,0.040177,0.000000,0.000000,0.000000,0.000000,0.000000
13.437420,0.038617,0.000000,0.000000,0.000000,0.000000,0.000000
13.447420,0.038617,0.000000,0.000000,0.000000,0.000000,0.000000
13.457420,0.038617,0.000000,0.000000,0.000000,0.000000,0.000000
13.467420,0.038617,0.000000,0.000000,0.000000,0.000000,0.000000
13.477420,0.037081,0.000000,0.000000,0.000000,0.000000,0.000000
13.487420,0.037081,0.000000,0.000000,0.000000,0.000000,0.000000
13.497420,0.037081,0.000000,0.000000,0.000000,0.000000,0.000000
13.507420,0.037081,0.000000,0.000000,0.000000,0.000000,0.000000
13.517420,0.037081,0.000000,0.000000,0.000000,0.000000,0.000000
13.527420,0.036322,0.000000,0.000000,0.000000,0.000000,0.000000
13.537420,0.034821,0.000000,0.000000,0.000000,0.000000,0.000000
13.547420,0.034821,0.000000,0.000000,0.000000,0.000000,0.000000
13.557420,0.034821,0.000000,0.000000,0.000000,0.000000,0.000000
13.567420,0.034821,0.000000,0.000000,0.000000,0.000000,0.000000
13.577420,0.034080,0.000000,0.000000,0.000000,0.000000,0.000000
13.587420,0.034080,0.000000,0.000000,0.000000,0.000000,0.000000
13.597420,0.032616,0.000000,0.000000,0.000000,0.000000,0.000000
13.607420,0.032616,0.000000,0.000000,0.000000,0.000000,0.000000
13.617420,0.032616,0.000000,0.000000,0.000000,0.000000,0.000000
13.627420,0.032616,0.000000,0.000000,0.000000,0.000000,0.000000
13.637420,0.031894,0.000000,0.000000,0.000000,0.000000,0.000000
13.647420,0.031894,0.000000,0.000000,0.000000,0.000000,0.000000
13.657420,0.030469,0.000000,0.000000,0.000000,0.000000,0.000000
13.667420,0.030469,0.000000,0.000000,0.000000,0.000000,0.000000
13.677420,0.030469,0.000000,0.000000,0.000000,0.000000,0.000000
13.687420,0.030469,0.000000,0.000000,0.000000,0.000000,0.000000
13.697420,0.029766,0.000000,0.000000,0.000000,0.000000,0.000000
13.707420,0.029766,0.000000,0.000000,0.000000,0.000000,0.000000
13.717420,0.028380,0.000000,0.000000,0.000000,0.000000,0.000000
13.727420,0.028380,0.000000,0.000000,0.000000,0.000000,0.000000
13.737420,0.028380,0.000000,0.000000,0.000000,0.000000,0.000000
13.747420,0.028380,0.000000,0.000000,0.000000,0.000000,0.000000
13.757420,0.027696,0.000000,0.000000,0.000000,0.000000,0.000000
13.767420,0.027696,0.000000,0.000000,0.000000,0.000000,0.000000
13.777420,0.026350,0.000000,0.000000,0.000000,0.000000,0.000000
13.787420,0.026350,0.000000,0.000000,0.000000,0.000000,0.000000
13.797420,0.026350,0.000000,0.000000,0.000000,0.000000,0.000000
13.807420,0.026350,0.000000,0.000000,0.000000,0.000000,0.000000
13.817420,0.025688,0.000000,0.000000,0.000000,0.000000,0.000000
13.827420,0.025688,0.000000,0.000000,0.000000,0.000000,0.000000
13.837420,0.024383,0.000000,0.000000,0.000000,0.000000,0.000000
13.847420,0.024383,0.000000,0.000000,0.000000,0.000000,0.000000
13.857420,0.024383,0.000000,0.000000,0.000000,0.000000,0.000000
13.867420,0.024383,0.000000,0.000000,0.000000,0.000000,0.000000
13.877420,0.023741,0.000000,0.000000,0.000000,0.000000,0.000000
13.887420,0.023741,0.000000,0.000000,0.000000,0.000000,0.000000
13.897420,0.022479,0.000000,0.000000,0.000000,0.000000,0.000000
13.907420,0.022479,0.000000,0.000000,0.000000,0.000000,0.000000
13.917420,0.022479,0.000000,0.000000,0.000000,0.000000,0.000000
13.927420,0.022479,0.000000,0.000000,0.000000,0.000000,0.000000
13.937420,0.022479,0.000000,0.000000,0.000000,0.000000,0.000000
13.947420,0.021859,0.000000,0.000000,0.000000,0.000000,0.000000
13.957420,0.020640,0.000000,0.000000,0.000000,0.000000,0.000000
13.967420,0.020640,0.000000,0.000000,0.000000,0.000000,0.000000
13.977420,0.020640,0.000000,0.000000,0.000000,0.000000,0.000000
13.987420,0.020640,0.000000,0.000000,0.000000,0.000000,0.000000
13.997420,0.019451,0.000000,0.000000,0.000000,0.000000,0.000000
14.007420,0.019451,0.000000,0.000000,0.000000,0.000000,0.000000
14.017420,0.019451,0.000000,0.000000,0.000000,0.000000,0.000000
14.027420,0.019451,0.000000,0.000000,0.000000,0.000000,0.000000
14.037420,0.018868,0.000000,0.000000,0.000000,0.000000,0.000000
14.047420,0.018868,0.000000,0.000000,0.000000,0.000000,0.000000
14.057420,0.017724,0.000000,0.000000,0.000000,0.000000,0.000000
14.067420,0.017724,0.000000,0.000000,0.000000,0.000000,0.000000
14.077420,0.017724,0.000000,0.000000,0.000000,0.000000,0.000000
14.087420,0.017724,0.000000,0.000000,0.000000,0.000000,0.000000
14.097420,0.017163,0.000000,0.000000,0.000000,0.000000,0.000000
14.107420,0.017163,0.000000,0.000000,0.000000,0.000000,0.000000
14.117420,0.017163,0.000000,0.000000,0.000000,0.000000,0.000000
14.127420,0.016066,0.000000,0.000000,0.000000,0.000000,0.000000
14.137420,0.016066,0.000000,0.000000,0.000000,0.000000,0.000000
14.147420,0.016066,0.000000,0.000000,0.000000,0.000000,0.000000
14.157420,0.015529,0.000000,0.000000,0.000000,0.000000,0.000000
14.167420,0.015529,0.000000,0.000000,0.000000,0.000000,0.000000
14.177420,0.014479,0.000000,0.000000,0.000000,0.000000,0.000000
14.187420,0.014479,0.000000,0.000000,0.000000,0.000000,0.000000
14.197420,0.014479,0.000000,0.000000,0.000000,0.000000,0.000000
14.207420,0.014479,0.000000,0.000000,0.000000,0.000000,0.000000
14.217420,0.013966,0.000000,0.000000,0.000000,0.000000,0.000000
14.227420,0.013966,0.000000,0.000000,0.000000,0.000000,0.000000
14.237420,0.012965,0.000000,0.000000,0.000000,0.000000,0.000000
14.247420,0.012965,0.000000,0.000000,0.000000,0.000000,0.000000
14.257420,0.012965,0.000000,0.000000,0.000000,0.000000,0.000000
14.267420,0.012965,0.000000,0.000000,0.000000,0.000000,0.000000
14.277420,0.011996,0.000000,0.000000,0.000000,0.000000,0.000000
14.287420,0.011996,0.000000,0.000000,0.000000,0.000000,0.000000
14.297420,0.011996,0.000000,0.000000,0.000000,0.000000,0.000000
14.307420,0.011996,0.000000,0.000000,0.000000,0.000000,0.000000
14.317420,0.011524,0.000000,0.000000,0.000000,0.000000,0.000000
14.327420,0.011524,0.000000,0.000000,0.000000,0.000000,0.000000
14.337420,0.010606,0.000000,0.000000,0.000000,0.000000,0.000000
14.347420,0.010606,0.000000,0.000000,0.000000,0.000000,0.000000
14.357420,0.010606,0.000000,0.000000,0.000000,0.000000,0.000000
14.367420,0.010606,0.000000,0.000000,0.000000,0.000000,0.000000
14.377420,0.010160,0.000000,0.000000,0.000000,0.000000,0.000000
14.387420,0.010160,0.000000,0.000000,0.000000,0.000000,0.000000
14.397420,0.010160,0.000000,0.000000,0.000000,0.000000,0.000000
14.407420,0.009293,0.000000,0.000000,0.000000,0.000000,0.000000
14.417420,0.009293,0.000000,0.000000,0.000000,0.000000,0.000000
14.427420,0.009293,0.000000,0.000000,0.000000,0.000000,0.000000
14.437420,0.009293,0.000000,0.000000,0.000000,0.000000,0.000000
14.447420,0.008461,0.000000,0.000000,0.000000,0.000000,0.000000
14.457420,0.008461,0.000000,0.000000,0.000000,0.000000,0.000000
14.467420,0.008461,0.000000,0.000000,0.000000,0.000000,0.000000
14.477420,0.008059,0.000000,0.000000,0.000000,0.000000,0.000000
14.487420,0.008059,0.000000,0.000000,0.000000,0.000000,0.000000
14.497420,0.007280,0.000000,0.000000,0.000000,0.000000,0.000000
14.507420,0.007280,0.000000,0.000000,0.000000,0.000000,0.000000
14.517420,0.007280,0.000000,0.000000,0.000000,0.000000,0.000000
14.527420,0.007280,0.000000,0.000000,0.000000,0.000000,0.000000
14.537420,0.006904,0.000000,0.000000,0.000000,0.000000,0.000000
14.547420,0.006904,0.000000,0.000000,0.000000,0.000000,0.000000
14.557420,0.006180,0.000000,0.000000,0.000000,0.000000,0.000000
14.567420,0.006180,0.000000,0.000000,0.000000,0.000000,0.000000
14.577420,0.006180,0.000000,0.000000,0.000000,0.000000,0.000000
14.587420,0.006180,0.000000,0.000000,0.000000,0.000000,0.000000
14.597420,0.005832,0.000000,0.000000,0.000000,0.000000,0.000000
14.607420,0.005832,0.000000,0.000000,0.000000,0.000000,0.000000
14.617420,0.005163,0.000000,0.000000,0.000000,0.000000,0.000000
14.627420,0.005163,0.000000,0.000000,0.000000,0.000000,0.000000
14.637420,0.005163,0.000000,0.000000,0.000000,0.000000,0.000000
14.647420,0.005163,0.000000,0.000000,0.000000,0.000000,0.000000
14.657420,0.005163,0.000000,0.000000,0.000000,0.000000,0.000000
14.667420,0.004842,0.000000,0.000000,0.000000,0.000000,0.000000
14.677420,0.004230,0.000000,0.000000,0.000000,0.000000,0.000000
14.687420,0.004230,0.000000,0.000000,0.000000,0.000000,0.000000
14.697420,0.004230,0.000000,0.000000,0.000000,0.000000,0.000000
14.707420,0.004230,0.000000,0.000000,0.000000,0.000000,0.000000
14.717420,0.003938,0.000000,0.000000,0.000000,0.000000,0.000000
14.727420,0.003938,0.000000,0.000000,0.000000,0.000000,0.000000
14.737420,0.003383,0.000000,0.000000,0.000000,0.000000,0.000000
14.747420,0.003383,0.000000,0.000000,0.000000,0.000000,0.000000
14.757420,0.003383,0.000000,0.000000,0.000000,0.000000,0.000000
14.767420,0.003383,0.000000,0.000000,0.000000,0.000000,0.000000
14.777420,0.002867,0.000000,0.000000,0.000000,0.000000,0.000000
14.787420,0.002867,0.000000,0.000000,0.000000,0.000000,0.000000
14.797420,0.002867,0.000000,0.000000,0.000000,0.000000,0.000000
14.807420,0.002867,0.000000,0.000000,0.000000,0.000000,0.000000
14.817420,0.002624,0.000000,0.000000,0.000000,0.000000,0.000000
14.827420,0.002624,0.000000,0.000000,0.000000,0.000000,0.000000
14.837420,0.002167,0.000000,0.000000,0.000000,0.000000,0.000000
14.847420,0.002167,0.000000,0.000000,0.000000,0.000000,0.000000
14.857420,0.002167,0.000000,0.000000,0.000000,0.000000,0.000000
14.867420,0.002167,0.000000,0.000000,0.000000,0.000000,0.000000
14.877420,0.001751,0.000000,0.000000,0.000000,0.000000,0.000000
14.887420,0.001751,0.000000,0.000000,0.000000,0.000000,0.000000
14.897420,0.001751,0.000000,0.000000,0.000000,0.000000,0.000000
14.907420,0.001751,0.000000,0.000000,0.000000,0.000000,0.000000
14.917420,0.001558,0.000000,0.000000,0.000000,0.000000,0.000000
14.927420,0.001558,0.000000,0.000000,0.000000,0.000000,0.000000
14.937420,0.001202,0.000000,0.000000,0.000000,0.000000,0.000000
14.947420,0.001202,0.000000,0.000000,0.000000,0.000000,0.000000
14.957420,0.001202,0.000000,0.000000,0.000000,0.000000,0.000000
14.967420,0.001202,0.000000,0.000000,0.000000,0.000000,0.000000
14.977420,0.001040,0.000000,0.000000,0.000000,0.000000,0.000000
14.987420,0.001040,0.000000,0.000000,0.000000,0.000000,0.000000
14.997420,0.000747,0.000000,0.000000,0.000000,0.000000,0.000000
15.007420,0.000747,0.000000,0.000000,0.000000,0.000000,0.000000
15.017420,0.000747,0.000000,0.000000,0.000000,0.000000,0.000000
15.027420,0.000747,0.000000,0.000000,0.000000,0.000000,0.000000
15.037420,0.000616,0.000000,0.000000,0.000000,0.000000,0.000000
15.047420,0.000616,0.000000,0.000000,0.000000,0.000000,0.000000
15.057420,0.000386,0.000000,0.000000,0.000000,0.000000,0.000000
15.067420,0.000386,0.000000,0.000000,0.000000,0.000000,0.000000
15.077420,0.000386,0.000000,0.000000,0.000000,0.000000,0.000000
15.087420,0.000386,0.000000,0.000000,0.000000,0.000000,0.000000
15.097420,0.000199,0.000000,0.000000,0.000000,0.000000,0.000000
15.107420,0.000199,0.000000,0.000000,0.000000,0.000000,0.000000
15.117420,0.000199,0.000000,0.000000,0.000000,0.000000,0.000000
15.127420,0.000199,0.000000,0.000000,0.000000,0.000000,0.000000
15.137420,0.000199,0.000000,0.000000,0.000000,0.000000,0.000000
15.147420,0.000122,0.000000,0.000000,0.000000,0.000000,0.000000
15.157420,0.000122,0.000000,0.000000,0.000000,0.000000,0.000000
15.167420,0.000000,0.000000,0.000000,0.000000,0.000000,0.000000
15.177420,0.000000,0.000000,0.000000,0.000000,0.000000,0.000000
15.187420,0.000000,0.000000,0.000000,0.000000,0.000000,0.000000
15.197420,-0.002490,0.000000,0.000000,0.000000,0.000000,0.000000
15.207420,-0.002490,0.000000,0.000000,0.000000,0.000000,0.000000
15.217420,-0.007410,0.000000,0.000000,0.000000,0.000000,0.000000
15.227420,-0.007410,0.000000,0.000000,0.000000,0.000000,0.000000
15.237420,-0.007410,0.000000,0.000000,0.000000,0.000000,0.000000
15.247420,-0.007410,0.000000,0.000000,0.000000,0.000000,0.000000
15.257420,-0.009840,0.000000,0.000000,0.000000,0.000000,0.000000
15.267420,-0.009840,0.000000,0.000000,0.000000,0.000000,0.000000
15.277420,-0.009840,0.000000,0.000000,0.000000,0.000000,0.000000
15.287420,-0.014640,0.000000,0.000000,0.000000,0.000000,0.000000
15.297420,-0.014640,0.000000,0.000000,0.000000,0.000000,0.000000
15.307420,-0.014640,0.000000,0.000000,0.000000,0.000000,0.000000
15.317420,-0.019360,0.000000,0.000000,0.000000,0.000000,0.000000
15.327420,-0.019360,0.000000,0.000000,0.000000,0.000000,0.000000
15.337420,-0.019360,0.000000,0.000000,0.000000,0.000000,0.000000
15.347420,-0.019360,0.000000,0.000000,0.000000,0.000000,0.000000
15.357420,-0.021690,0.000000,0.000000,0.000000,0.000000,0.000000
15.367420,-0.021690,0.000000,0.000000,0.000000,0.000000,0.000000
15.377420,-0.026290,0.000000,0.000000,0.000000,0.000000,0.000000
15.387420,-0.026290,0.000000,0.000000,0.000000,0.000000,0.000000
15.397420,-0.026290,0.000000,0.000000,0.000000,0.000000,0.000000
15.407420,-0.026290,0.000000,0.000000,0.000000,0.000000,0.000000
15.417420,-0.030810,0.000000,0.000000,0.000000,0.000000,0.000000
15.427420,-0.030810,0.000000,0.000000,0.000000,0.000000,0.000000
15.437420,-0.030810,0.000000,0.000000,0.000000,0.000000,0.000000
15.447420,-0.030810,0.000000,0.000000,0.000000,0.000000,0.000000
15.457420,-0.033040,0.000000,0.000000,0.000000,0.000000,0.000000
15.467420,-0.033040,0.000000,0.000000,0.000000,0.000000,0.000000
15.477420,-0.037440,0.000000,0.000000,0.000000,0.000000,0.000000
15.487420,-0.037440,0.000000,0.000000,0.000000,0.000000,0.000000
15.497420,-0.037440,0.000000,0.000000,0.000000,0.000000,0.000000
15.507420,-0.037440,0.000000,0.000000,0.000000,0.000000,0.000000
15.517420,-0.039610,0.000000,0.000000,0.000000,0.000000,0.000000
15.527420,-0.039610,0.000000,0.000000,0.000000,0.000000,0.000000
15.537420,-0.043890,0.000000,0.000000,0.000000,0.000000,0.000000
15.547420,-0.043890,0.000000,0.000000,0.000000,0.000000,0.000000
15.557420,-0.043890,0.000000,0.000000,0.000000,0.000000,0.000000
15.567420,-0.043890,0.000000,0.000000,0.000000,0.000000,0.000000
15.577420,-0.043890,0.000000,0.000000,0.000000,0.000000,0.000000
15.587420,-0.046000,0.000000,0.000000,0.000000,0.000000,0.000000
15.597420,-0.050160,0.000000,0.000000,0.000000,0.000000,0.000000
15.607420,-0.050160,0.000000,0.000000,0.000000,0.000000,0.000000
15.617420,-0.050160,0.000000,0.000000,0.000000,0.000000,0.000000
15.627420,-0.050160,0.000000,0.000000,0.000000,0.000000,0.000000
15.637420,-0.052210,0.000000,0.000000,0.000000,0.000000,0.000000
15.647420,-0.052210,0.000000,0.000000,0.000000,0.000000,0.000000
15.657420,-0.056250,0.000000,0.000000,0.000000,0.000000,0.000000
15.667420,-0.056250,0.000000,0.000000,0.000000,0.000000,0.000000
15.677420,-0.056250,0.000000,0.000000,0.000000,0.000000,0.000000
15.687420,-0.056250,0.000000,0.000000,0.000000,0.000000,0.000000
15.697420,-0.060210,0.000000,0.000000,0.000000,0.000000,0.000000
15.707420,-0.060210,0.000000,0.000000,0.000000,0.000000,0.000000
15.717420,-0.060210,0.000000,0.000000,0.000000,0.000000,0.000000
15.727420,-0.060210,0.000000,0.000000,0.000000,0.000000,0.000000
15.737420,-0.062160,0.000000,0.000000,0.000000,0.000000,0.000000
15.747420,-0.062160,0.000000,0.000000,0.000000,0.000000,0.000000
15.757420,-0.066000,0.000000,0.000000,0.000000,0.000000,0.000000
15.767420,-0.066000,0.000000,0.000000,0.000000,0.000000,0.000000
15.777420,-0.066000,0.000000,0.000000,0.000000,0.000000,0.000000
15.787420,-0.066000,0.000000,0.000000,0.000000,0.000000,0.000000
15.797420,-0.069760,0.000000,0.000000,0.000000,0.000000,0.000000
15.807420,-0.069760,0.000000,0.000000,0.000000,0.000000,0.000000
15.817420,-0.069760,0.000000,0.000000,0.000000,0.000000,0.000000
15.827420,-0.069760,0.000000,0.000000,0.000000,0.000000,0.000000
15.837420,-0.069760,0.000000,0.000000,0.000000,0.000000,0.000000
15.847420,-0.071610,0.000000,0.000000,0.000000,0.000000,0.000000
15.857420,-0.075250,0.000000,0.000000,0.000000,0.000000,0.000000
15.867420,-0.075250,0.000000,0.000000,0.000000,0.000000,0.000000
15.877420,-0.075250,0.000000,0.000000,0.000000,0.000000,0.000000
15.887420,-0.075250,0.000000,0.000000,0.000000,0.000000,0.000000
15.897420,-0.078810,0.000000,0.000000,0.000000,0.000000,0.000000
15.907420,-0.078810,0.000000,0.000000,0.000000,0.000000,0.000000
15.917420,-0.078810,0.000000,0.000000,0.000000,0.000000,0.000000
15.927420,-0.078810,0.000000,0.000000,0.000000,0.000000,0.000000
15.937420,-0.080560,0.000000,0.000000,0.000000,0.000000,0.000000
15.947420,-0.080560,0.000000,0.000000,0.000000,0.000000,0.000000
15.957420,-0.084000,0.000000,0.000000,0.000000,0.000000,0.000000
15.967420,-0.084000,0.000000,0.000000,0.000000,0.000000,0.000000
15.977420,-0.084000,0.000000,0.000000,0.000000,0.000000,0.000000
15.987420,-0.084000,0.000000,0.000000,0.000000,0.000000,0.000000
15.997420,-0.087360,0.000000,0.000000,0.000000,0.000000,0.000000
16.007420,-0.087360,0.000000,0.000000,0.000000,0.000000,0.000000
16.017420,-0.087360,0.000000,0.000000,0.000000,0.000000,0.000000
16.027420,-0.087360,0.000000,0.000000,0.000000,0.000000,0.000000
16.037420,-0.089010,0.000000,0.000000,0.000000,0.000000,0.000000
16.047420,-0.089010,0.000000,0.000000,0.000000,0.000000,0.000000
16.057420,-0.092250,0.000000,0.000000,0.000000,0.000000,0.000000
16.067420,-0.092250,0.000000,0.000000,0.000000,0.000000,0.000000
16.077420,-0.092250,0.000000,0.000000,0.000000,0.000000,0.000000
16.087420,-0.092250,0.000000,0.000000,0.000000,0.000000,0.000000
16.097420,-0.093840,0.000000,0.000000,0.000000,0.000000,0.000000
16.107420,-0.093840,0.000000,0.000000,0.000000,0.000000,0.000000
16.117420,-0.096960,0.000000,0.000000,0.000000,0.000000,0.000000
16.127420,-0.096960,0.000000,0.000000,0.000000,0.000000,0.000000
16.137420,-0.096960,0.000000,0.000000,0.000000,0.000000,0.000000
16.147420,-0.096960,0.000000,0.000000,0.000000,0.000000,0.000000
16.157420,-0.100000,0.000000,0.000000,0.000000,0.000000,0.000000
16.167420,-0.100000,0.000000,0.000000,0.000000,0.000000,0.000000
16.177420,-0.100000,0.000000,0.000000,0.000000,0.000000,0.000000
16.187420,-0.100000,0.000000,0.000000,0.000000,0.000000,0.000000
16.197420,-0.100000,0.000000,0.000000,0.000000,0.000000,0.000000
16.207420,-0.101490,0.000000,0.000000,0.000000,0.000000,0.000000
16.217420,-0.101490,0.000000,0.000000,0.000000,0.000000,0.000000
16.227420,-0.104410,0.000000,0.000000,0.000000,0.000000,0.000000
16.237420,-0.104410,0.000000,0.000000,0.000000,0.000000,0.000000
16.247420,-0.104410,0.000000,0.000000,0.000000,0.000000,0.000000
16.257420,-0.105840,0.000000,0.000000,0.000000,0.000000,0.000000
16.267420,-0.105840,0.000000,0.000000,0.000000,0.000000,0.000000
16.277420,-0.108640,0.000000,0.000000,0.000000,0.000000,0.000000
16.287420,-0.108640,0.000000,0.000000,0.000000,0.000000,0.000000
16.297420,-0.108640,0.000000,0.000000,0.000000,0.000000,0.000000
16.307420,-0.108640,0.000000,0.000000,0.000000,0.000000,0.000000
16.317420,-0.111360,0.000000,0.000000,0.000000,0.000000,0.000000
16.327420,-0.111360,0.000000,0.000000,0.000000,0.000000,0.000000
16.337420,-0.111360,0.000000,0.000000,0.000000,0.000000,0.000000
16.347420,-0.111360,0.000000,0.000000,0.000000,0.000000,0.000000
16.357420,-0.112690,0.000000,0.000000,0.000000,0.000000,0.000000
16.367420,-0.112690,0.000000,0.000000,0.000000,0.000000,0.000000
16.377420,-0.112690,0.000000,0.000000,0.000000,0.000000,0.000000
16.387420,-0.115290,0.000000,0.000000,0.000000,0.000000,0.000000
16.397420,-0.115290,0.000000,0.000000,0.000000,0.000000,0.000000
16.407420,-0.115290,0.000000,0.000000,0.000000,0.000000,0.000000
16.417420,-0.115290,0.000000,0.000000,0.000000,0.000000,0.000000
16.427420,-0.116560,0.000000,0.000000,0.000000,0.000000,0.000000
16.437420,-0.119040,0.000000,0.000000,0.000000,0.000000,0.000000
16.447420,-0.119040,0.000000,0.000000,0.000000,0.000000,0.000000
16.457420,-0.119040,0.000000,0.000000,0.000000,0.000000,0.000000
16.467420,-0.119040,0.000000,0.000000,0.000000,0.000000,0.000000
16.477420,-0.121440,0.000000,0.000000,0.000000,0.000000,0.000000
16.487420,-0.121440,0.000000,0.000000,0.000000,0.000000,0.000000
16.497420,-0.121440,0.000000,0.000000,0.000000,0.000000,0.000000
16.507420,-0.121440,0.000000,0.000000,0.000000,0.000000,0.000000
16.517420,-0.122610,0.000000,0.000000,0.000000,0.000000,0.000000
16.527420,-0.122610,0.000000,0.000000,0.000000,0.000000,0.000000
16.537420,-0.124890,0.000000,0.000000,0.000000,0.000000,0.000000
16.547420,-0.124890,0.000000,0.000000,0.000000,0.000000,0.000000
16.557420,-0.124890,0.000000,0.000000,0.000000,0.000000,0.000000
16.567420,-0.124890,0.000000,0.000000,0.000000,0.000000,0.000000
16.577420,-0.124890,0.000000,0.000000,0.000000,0.000000,0.000000
16.587420,-0.126000,0.000000,0.000000,0.000000,0.000000,0.000000
16.597420,-0.126000,0.000000,0.000000,0.000000,0.000000,0.000000
16.607420,-0.128160,0.000000,0.000000,0.000000,0.000000,0.000000
16.617420,-0.128160,0.000000,0.000000,0.000000,0.000000,0.000000
16.627420,-0.128160,0.000000,0.000000,0.000000,0.000000,0.000000
16.637420,-0.129210,0.000000,0.000000,0.000000,0.000000,0.000000
16.647420,-0.129210,0.000000,0.000000,0.000000,0.000000,0.000000
16.657420,-0.129210,0.000000,0.000000,0.000000,0.000000,0.000000
16.667420,-0.131250,0.000000,0.000000,0.000000,0.000000,0.000000
16.677420,-0.131250,0.000000,0.000000,0.000000,0.000000,0.000000
16.687420,-0.131250,0.000000,0.000000,0.000000,0.000000,0.000000
16.697420,-0.132240,0.000000,0.000000,0.000000,0.000000,0.000000
16.707420,-0.132240,0.000000,0.000000,0.000000,0.000000,0.000000
16.717420,-0.134160,0.000000,0.000000,0.000000,0.000000,0.000000
16.727420,-0.134160,0.000000,0.000000,0.000000,0.000000,0.000000
16.737420,-0.134160,0.000000,0.000000,0.000000,0.000000,0.000000
16.747420,-0.134160,0.000000,0.000000,0.000000,0.000000,0.000000
16.757420,-0.135090,0.000000,0.000000,0.000000,0.000000,0.000000
16.767420,-0.135090,0.000000,0.000000,0.000000,0.000000,0.000000
16.777420,-0.136890,0.000000,0.000000,0.000000,0.000000,0.000000
16.787420,-0.136890,0.000000,0.000000,0.000000,0.000000,0.000000
16.797420,-0.136890,0.000000,0.000000,0.000000,0.000000,0.000000
16.807420,-0.136890,0.000000,0.000000,0.000000,0.000000,0.000000
16.817420,-0.137760,0.000000,0.000000,0.000000,0.000000,0.000000
16.827420,-0.137760,0.000000,0.000000,0.000000,0.000000,0.000000
16.837420,-0.139440,0.000000,0.000000,0.000000,0.000000,0.000000
16.847420,-0.139440,0.000000,0.000000,0.000000,0.000000,0.000000
16.857420,-0.139440,0.000000,0.000000,0.000000,0.000000,0.000000
16.867420,-0.139440,0.000000,0.000000,0.000000,0.000000,0.000000
16.877420,-0.141040,0.000000,0.000000,0.000000,0.000000,0.000000
16.887420,-0.141040,0.000000,0.000000,0.000000,0.000000,0.000000
16.897420,-0.141040,0.000000,0.000000,0.000000,0.000000,0.000000
16.907420,-0.141040,0.000000,0.000000,0.000000,0.000000,0.000000
16.917420,-0.141810,0.000000,0.000000,0.000000,0.000000,0.000000
16.927420,-0.141810,0.000000,0.000000,0.000000,0.000000,0.000000
16.937420,-0.143290,0.000000,0.000000,0.000000,0.000000,0.000000
16.947420,-0.143290,0.000000,0.000000,0.000000,0.000000,0.000000
16.957420,-0.143290,0.000000,0.000000,0.000000,0.000000,0.000000
16.967420,-0.143290,0.000000,0.000000,0.000000,0.000000,0.000000
16.977420,-0.144000,0.000000,0.000000,0.000000,0.000000,0.000000
16.987420,-0.144000,0.000000,0.000000,0.000000,0.000000,0.000000
16.997420,-0.145360,0.000000,0.000000,0.000000,0.000000,0.000000
17.007420,-0.145360,0.000000,0.000000,0.000000,0.000000,0.000000
17.017420,-0.145360,0.000000,0.000000,0.000000,0.000000,0.000000
17.027420,-0.145360,0.000000,0.000000,0.000000,0.000000,0.000000
17.037420,-0.146010,0.000000,0.000000,0.000000,0.000000,0.000000
17.047420,-0.146010,0.000000,0.000000,0.000000,0.000000,0.000000
17.057420,-0.147250,0.000000,0.000000,0.000000,0.000000,0.000000
17.067420,-0.147250,0.000000,0.000000,0.000000,0.000000,0.000000
17.077420,-0.147250,0.000000,0.000000,0.000000,0.000000,0.000000
17.087420,-0.147250,0.000000,0.000000,0.000000,0.000000,0.000000
17.097420,-0.148410,0.000000,0.000000,0.000000,0.000000,0.000000
17.107420,-0.148410,0.000000,0.000000,0.000000,0.000000,0.000000
17.117420,-0.148410,0.000000,0.000000,0.000000,0.000000,0.000000
17.127420,-0.148410,0.000000,0.000000,0.000000,0.000000,0.000000
17.137420,-0.148960,0.000000,0.000000,0.000000,0.000000,0.000000
17.147420,-0.148960,0.000000,0.000000,0.000000,0.000000,0.000000
17.157420,-0.150000,0.000000,0.000000,0.000000,0.000000,0.000000
17.167420,-0.150000,0.000000,0.000000,0.000000,0.000000,0.000000
17.177420,-0.150000,0.000000,0.000000,0.000000,0.000000,0.000000
17.187420,-0.150000,0.000000,0.000000,0.000000,0.000000,0.000000
17.197420,-0.150490,0.000000,0.000000,0.000000,0.000000,0.000000
17.207420,-0.150490,0.000000,0.000000,0.000000,0.000000,0.000000
17.217420,-0.150490,0.000000,0.000000,0.000000,0.000000,0.000000
17.227420,-0.151410,0.000000,0.000000,0.000000,0.000000,0.000000
17.237420,-0.151410,0.000000,0.000000,0.000000,0.000000,0.000000
17.247420,-0.151410,0.000000,0.000000,0.000000,0.000000,0.000000
17.257420,-0.151840,0.000000,0.000000,0.000000,0.000000,0.000000
17.267420,-0.151840,0.000000,0.000000,0.000000,0.000000,0.000000
17.277420,-0.152640,0.000000,0.000000,0.000000,0.000000,0.000000
17.287420,-0.152640,0.000000,0.000000,0.000000,0.000000,0.000000
17.297420,-0.152640,0.000000,0.000000,0.000000,0.000000,0.000000
17.307420,-0.152640,0.000000,0.000000,0.000000,0.000000,0.000000
17.317420,-0.153360,0.000000,0.000000,0.000000,0.000000,0.000000
17.327420,-0.153360,0.000000,0.000000,0.000000,0.000000,0.000000
17.337420,-0.153360,0.000000,0.000000,0.000000,0.000000,0.000000
17.347420,-0.153360,0.000000,0.000000,0.000000,0.000000,0.000000
17.357420,-0.153690,0.000000,0.000000,0.000000,0.000000,0.000000
17.367420,-0.153690,0.000000,0.000000,0.000000,0.000000,0.000000
17.377420,-0.154290,0.000000,0.000000,0.000000,0.000000,0.000000
17.387420,-0.154290,0.000000,0.000000,0.000000,0.000000,0.000000
17.397420,-0.154290,0.000000,0.000000,0.000000,0.000000,0.000000
17.407420,-0.154290,0.000000,0.000000,0.000000,0.000000,0.000000
17.417420,-0.154560,0.000000,0.000000,0.000000,0.000000,0.000000
17.427420,-0.154560,0.000000,0.000000,0.000000,0.000000,0.000000
17.437420,-0.155040,0.000000,0.000000,0.000000,0.000000,0.000000
17.447420,-0.155040,0.000000,0.000000,0.000000,0.000000,0.000000
17.457420,-0.155040,0.000000,0.000000,0.000000,0.000000,0.000000
17.467420,-0.155040,0.000000,0.000000,0.000000,0.000000,0.000000
17.477420,-0.155440,0.000000,0.000000,0.000000,0.000000,0.000000
17.487420,-0.155440,0.000000,0.000000,0.000000,0.000000,0.000000
17.497420,-0.155440,0.000000,0.000000,0.000000,0.000000,0.000000
17.507420,-0.155440,0.000000,0.000000,0.000000,0.000000,0.000000
17.517420,-0.155610,0.000000,0.000000,0.000000,0.000000,0.000000
17.527420,-0.155610,0.000000,0.000000,0.000000,0.000000,0.000000
17.537420,-0.155890,0.000000,0.000000,0.000000,0.000000,0.000000
17.547420,-0.155890,0.000000,0.000000,0.000000,0.000000,0.000000
17.557420,-0.155890,0.000000,0.000000,0.000000,0.000000,0.000000
17.567420,-0.155890,0.000000,0.000000,0.000000,0.000000,0.000000
17.577420,-0.156000,0.000000,0.000000,0.000000,0.000000,0.000000
17.587420,-0.156000,0.000000,0.000000,0.000000,0.000000,0.000000
17.597420,-0.156000,0.000000,0.000000,0.000000,0.000000,0.000000
17.607420,-0.156160,0.000000,0.000000,0.000000,0.000000,0.000000
17.617420,-0.156160,0.000000,0.000000,0.000000,0.000000,0.000000
17.627420,-0.156160,0.000000,0.000000,0.000000,0.000000,0.000000
17.637420,-0.156210,0.000000,0.000000,0.000000,0.000000,0.000000
17.647420,-0.156210,0.000000,0.000000,0.000000,0.000000,0.000000
17.657420,-0.156250,0.000000,0.000000,0.000000,0.000000,0.000000
17.667420,-0.156250,0.000000,0.000000,0.000000,0.000000,0.000000
17.677420,-0.156250,0.000000,0.000000,0.000000,0.000000,0.000000
17.687420,-0.156250,0.000000,0.000000,0.000000,0.000000,0.000000
17.697420,-0.156240,0.000000,0.000000,0.000000,0.000000,0.000000
17.707420,-0.156240,0.000000,0.000000,0.000000,0.000000,0.000000
17.717420,-0.156160,0.000000,0.000000,0.000000,0.000000,0.000000
17.727420,-0.156160,0.000000,0.000000,0.000000,0.000000,0.000000
17.737420,-0.156160,0.000000,0.000000,0.000000,0.000000,0.000000
17.747420,-0.156160,0.000000,0.000000,0.000000,0.000000,0.000000
17.757420,-0.156000,0.000000,0.000000,0.000000,0.000000,0.000000
17.767420,-0.156000,0.000000,0.000000,0.000000,0.000000,0.000000
17.777420,-0.156000,0.000000,0.000000,0.000000,0.000000,0.000000
17.787420,-0.156000,0.000000,0.000000,0.000000,0.000000,0.000000
17.797420,-0.155890,0.000000,0.000000,0.000000,0.000000,0.000000
17.807420,-0.155890,0.000000,0.000000,0.000000,0.000000,0.000000
17.817420,-0.155610,0.000000,0.000000,0.000000,0.000000,0.000000
17.827420,-0.155610,0.000000,0.000000,0.000000,0.000000,0.000000
17.837420,-0.155610,0.000000,0.000000,0.000000,0.000000,0.000000
17.847420,-0.155610,0.000000,0.000000,0.000000,0.000000,0.000000
17.857420,-0.155440,0.000000,0.000000,0.000000,0.000000,0.000000
17.867420,-0.155440,0.000000,0.000000,0.000000,0.000000,0.000000
17.877420,-0.155040,0.000000,0.000000,0.000000,0.000000,0.000000
17.887420,-0.155040,0.000000,0.000000,0.000000,0.000000,0.000000
17.897420,-0.155040,0.000000,0.000000,0.000000,0.000000,0.000000
17.907420,-0.155040,0.000000,0.000000,0.000000,0.000000,0.000000
17.917420,-0.155040,0.000000,0.000000,0.000000,0.000000,0.000000
17.927420,-0.154810,0.000000,0.000000,0.000000,0.000000,0.000000
17.937420,-0.154810,0.000000,0.000000,0.000000,0.000000,0.000000
17.947420,-0.154290,0.000000,0.000000,0.000000,0.000000,0.000000
17.957420,-0.154290,0.000000,0.000000,0.000000,0.000000,0.000000
17.967420,-0.154290,0.000000,0.000000,0.000000,0.000000,0.000000
17.977420,-0.154000,0.000000,0.000000,0.000000,0.000000,0.000000
17.987420,-0.154000,0.000000,0.000000,0.000000,0.000000,0.000000
17.997420,-0.153360,0.000000,0.000000,0.000000,0.000000,0.000000
18.007420,-0.153360,0.000000,0.000000,0.000000,0.000000,0.000000
18.017420,-0.153360,0.000000,0.000000,0.000000,0.000000,0.000000
18.027420,-0.153360,0.000000,0.000000,0.000000,0.000000,0.000000
18.037420,-0.152640,0.000000,0.000000,0.000000,0.000000,0.000000
18.047420,-0.152640,0.000000,0.000000,0.000000,0.000000,0.000000
18.057420,-0.152640,0.000000,0.000000,0.000000,0.000000,0.000000
18.067420,-0.152640,0.000000,0.000000,0.000000,0.000000,0.000000
18.077420,-0.152250,0.000000,0.000000,0.000000,0.000000,0.000000
18.087420,-0.152250,0.000000,0.000000,0.000000,0.000000,0.000000
18.097420,-0.151410,0.000000,0.000000,0.000000,0.000000,0.000000
18.107420,-0.151410,0.000000,0.000000,0.000000,0.000000,0.000000
18.117420,-0.151410,0.000000,0.000000,0.000000,0.000000,0.000000
18.127420,-0.151410,0.000000,0.000000,0.000000,0.000000,0.000000
18.137420,-0.150960,0.000000,0.000000,0.000000,0.000000,0.000000
18.147420,-0.150960,0.000000,0.000000,0.000000,0.000000,0.000000
18.157420,-0.150000,0.000000,0.000000,0.000000,0.000000,0.000000
18.167420,-0.150000,0.000000,0.000000,0.000000,0.000000,0.000000
18.177420,-0.150000,0.000000,0.000000,0.000000,0.000000,0.000000
18.187420,-0.150000,0.000000,0.000000,0.000000,0.000000,0.000000
18.197420,-0.150000,0.000000,0.000000,0.000000,0.000000,0.000000
18.207420,-0.148960,0.000000,0.000000,0.000000,0.000000,0.000000
18.217420,-0.148960,0.000000,0.000000,0.000000,0.000000,0.000000
18.227420,-0.148960,0.000000,0.000000,0.000000,0.000000,0.000000
18.237420,-0.148410,0.000000,0.000000,0.000000,0.000000,0.000000
18.247420,-0.148410,0.000000,0.000000,0.000000,0.000000,0.000000
18.257420,-0.147250,0.000000,0.000000,0.000000,0.000000,0.000000
18.267420,-0.147250,0.000000,0.000000,0.000000,0.000000,0.000000
18.277420,-0.147250,0.000000,0.000000,0.000000,0.000000,0.000000
18.287420,-0.147250,0.000000,0.000000,0.000000,0.000000,0.000000
18.297420,-0.147250,0.000000,0.000000,0.000000,0.000000,0.000000
18.307420,-0.146640,0.000000,0.000000,0.000000,0.000000,0.000000
18.317420,-0.146640,0.000000,0.000000,0.000000,0.000000,0.000000
18.327420,-0.145360,0.000000,0.000000,0.000000,0.000000,0.000000
18.337420,-0.145360,0.000000,0.000000,0.000000,0.000000,0.000000
18.347420,-0.145360,0.000000,0.000000,0.000000,0.000000,0.000000
18.357420,-0.144690,0.000000,0.000000,0.000000,0.000000,0.000000
18.367420,-0.144690,0.000000,0.000000,0.000000,0.000000,0.000000
18.377420,-0.143290,0.000000,0.000000,0.000000,0.000000,0.000000
18.387420,-0.143290,0.000000,0.000000,0.000000,0.000000,0.000000
18.397420,-0.143290,0.000000,0.000000,0.000000,0.000000,0.000000
18.407420,-0.143290,0.000000,0.000000,0.000000,0.000000,0.000000
18.417420,-0.143290,0.000000,0.000000,0.000000,0.000000,0.000000
18.427420,-0.142560,0.000000,0.000000,0.000000,0.000000,0.000000
18.437420,-0.141040,0.000000,0.000000,0.000000,0.000000,0.000000
18.447420,-0.141040,0.000000,0.000000,0.000000,0.000000,0.000000
18.457420,-0.141040,0.000000,0.000000,0.000000,0.000000,0.000000
18.467420,-0.141040,0.000000,0.000000,0.000000,0.000000,0.000000
18.477420,-0.140250,0.000000,0.000000,0.000000,0.000000,0.000000
18.487420,-0.140250,0.000000,0.000000,0.000000,0.000000,0.000000
18.497420,-0.138610,0.000000,0.000000,0.000000,0.000000,0.000000
18.507420,-0.138610,0.000000,0.000000,0.000000,0.000000,0.000000
18.517420,-0.138610,0.000000,0.000000,0.000000,0.000000,0.000000
18.527420,-0.138610,0.000000,0.000000,0.000000,0.000000,0.000000
18.537420,-0.137760,0.000000,0.000000,0.000000,0.000000,0.000000
18.547420,-0.137760,0.000000,0.000000,0.000000,0.000000,0.000000
18.557420,-0.136000,0.000000,0.000000,0.000000,0.000000,0.000000
18.567420,-0.136000,0.000000,0.000000,0.000000,0.000000,0.000000
18.577420,-0.136000,0.000000,0.000000,0.000000,0.000000,0.000000
18.587420,-0.136000,0.000000,0.000000,0.000000,0.000000,0.000000
18.597420,-0.135090,0.000000,0.000000,0.000000,0.000000,0.000000
18.607420,-0.135090,0.000000,0.000000,0.000000,0.000000,0.000000
18.617420,-0.133210,0.000000,0.000000,0.000000,0.000000,0.000000
18.627420,-0.133210,0.000000,0.000000,0.000000,0.000000,0.000000
18.637420,-0.133210,0.000000,0.000000,0.000000,0.000000,0.000000
18.647420,-0.133210,0.000000,0.000000,0.000000,0.000000,0.000000
18.657420,-0.132240,0.000000,0.000000,0.000000,0.000000,0.000000
18.667420,-0.132240,0.000000,0.000000,0.000000,0.000000,0.000000
18.677420,-0.132240,0.000000,0.000000,0.000000,0.000000,0.000000
18.687420,-0.130240,0.000000,0.000000,0.000000,0.000000,0.000000
18.697420,-0.130240,0.000000,0.000000,0.000000,0.000000,0.000000
18.707420,-0.130240,0.000000,0.000000,0.000000,0.000000,0.000000
18.717420,-0.128160,0.000000,0.000000,0.000000,0.000000,0.000000
18.727420,-0.128160,0.000000,0.000000,0.000000,0.000000,0.000000
18.737420,-0.128160,0.000000,0.000000,0.000000,0.000000,0.000000
18.747420,-0.128160,0.000000,0.000000,0.000000,0.000000,0.000000
18.757420,-0.127090,0.000000,0.000000,0.000000,0.000000,0.000000
18.767420,-0.127090,0.000000,0.000000,0.000000,0.000000,0.000000
18.777420,-0.124890,0.000000,0.000000,0.000000,0.000000,0.000000
18.787420,-0.124890,0.000000,0.000000,0.000000,0.000000,0.000000
18.797420,-0.124890,0.000000,0.000000,0.000000,0.000000,0.000000
18.807420,-0.124890,0.000000,0.000000,0.000000,0.000000,0.000000
18.817420,-0.124890,0.000000,0.000000,0.000000,0.000000,0.000000
18.827420,-0.123760,0.000000,0.000000,0.000000,0.000000,0.000000
18.837420,-0.121440,0.000000,0.000000,0.000000,0.000000,0.000000
18.847420,-0.121440,0.000000,0.000000,0.000000,0.000000,0.000000
18.857420,-0.121440,0.000000,0.000000,0.000000,0.000000,0.000000
18.867420,-0.121440,0.000000,0.000000,0.000000,0.000000,0.000000
18.877420,-0.119040,0.000000,0.000000,0.000000,0.000000,0.000000
18.887420,-0.119040,0.000000,0.000000,0.000000,0.000000,0.000000
18.897420,-0.119040,0.000000,0.000000,0.000000,0.000000,0.000000
18.907420,-0.119040,0.000000,0.000000,0.000000,0.000000,0.000000
18.917420,-0.117810,0.000000,0.000000,0.000000,0.000000,0.000000
18.927420,-0.117810,0.000000,0.000000,0.000000,0.000000,0.000000
18.937420,-0.117810,0.000000,0.000000,0.000000,0.000000,0.000000
18.947420,-0.115290,0.000000,0.000000,0.000000,0.000000,0.000000
